Time (s),Linear Acceleration x (m/s^2),Linear Acceleration y (m/s^2),Linear Acceleration z (m/s^2),Absolute acceleration (m/s^2)
0.127944221,-0.7399295965413334,-1.31041316982,0.46491632460666665,1.8605302172666667
0.135970194,-0.6530906200013332,-1.3660869518866667,0.64623998008,1.9420009878
0.143996167,-0.5524077574013333,-1.4223900556199998,0.9041903177933333,2.0826380366
0.15202214,-0.45699410434133336,-1.4706439733133334,1.2807031313666666,2.3540345026666665
0.160048113,-0.391143449134,-1.5258360226266665,1.6979934692266667,2.6684396963999997
0.168074086,-0.3398009936206667,-1.5738987206466666,2.0203122138733334,2.9019471246
0.176100059,-0.318169720974,-1.6092119454733333,2.1871600150866666,3.0221328668000003
0.184126032,-0.3294481754206667,-1.6452314694266665,2.2148444175466664,3.0647981952
0.192152005,-0.3602239290606667,-1.69532244994,2.136251258826667,3.0968383112666666
0.200177979,-0.376332807514,-1.7726869900666666,1.9845600127866665,3.1450156942
0.208203952,-0.3896738370006666,-1.8315861860666665,1.8367310205866665,3.202606521
0.216229925,-0.384171573334,-1.8046687126,1.72786035538,3.1702140587999996
0.224255898,-0.352044781034,-1.6980029344666667,1.6641460100799998,3.0551230558
0.232281871,-0.35861105122733333,-1.5740749398733334,1.5488713582200002,2.9374065058
0.240307844,-0.39639931518599997,-1.4764366746,1.3324823061533335,2.8969192738
0.248303299,-0.4855835835326667,-1.3944004833733332,1.00864998502,2.9828873322666665
0.256329272,-0.6088419993659999,-1.3362325091866667,0.6014381726866667,3.110292124
0.264355245,-0.7257473866126667,-1.2830032408266667,0.09991804761999999,3.1988945567333333
0.272381218,-0.8003494977926667,-1.2243670245066665,-0.5118546485800001,3.1308916844666665
0.280407191,-0.9145528316666667,-1.2909575800400002,-1.2205492973133332,3.1071689134666665
0.288433164,-1.0143956184466667,-1.4250630637733332,-1.8367912292466666,3.185878437466667
0.296459138,-0.99750172298,-1.3309454381866668,-2.3025937398466665,3.2662521042
0.304485111,-0.8930258910133333,-1.0463770886533332,-2.5631840706,3.429262340666667
0.312511084,-0.7042515914133334,-0.7473215123199999,-2.458876895906667,3.5545008368
0.320537057,-0.7016680718,-0.4977551161866666,-2.2898972511333335,3.551846821533333
0.328563031,-0.92009619082,-0.43409985098666665,-1.9675124804666666,3.7418529138666665
0.336589004,-1.1695394278199998,-0.5102983811866666,-1.6427013715266667,4.0633596512
0.344614977,-1.3311539571200002,-0.54496828112,-1.3232732455266667,4.363876882533333
0.35264095,-1.4540467660133336,-0.47696740421999995,-1.1015992164666668,4.538251983333334
0.360636405,-1.5976988077466667,-0.33654244535999994,-0.8930760065333333,4.627845638999999
0.368662378,-1.7788989782133333,-0.19727753391999994,-0.6636709213080001,4.664990812799999
0.376688351,-1.99688665868,-0.04324806917333328,-0.453529930108,4.698044441733333
0.384714324,-2.267197171866667,0.13735894773333338,-0.252952416708,4.7530926372
0.392740297,-2.582956751193333,0.35327598268,-0.07249635057466666,4.8741367826
0.400766271,-2.80316524506,0.7626492183466667,0.18397909804533333,4.912672937666667
0.408792244,-2.986039241193333,1.2858934562800002,0.46923195528533335,4.9307966026
0.416818217,-3.22420137724,1.58491846736,0.7056196531586668,5.057433425599999
0.42484419,-3.4977873802066664,1.6781510036933331,0.821879704892,5.1602655399333335
0.432870163,-3.8373299439399995,1.7246184350266667,0.6339041392920001,5.266314729666666
0.440896136,-4.047068929666667,1.8102622032933333,0.41299343115866677,5.4542663599333325
0.448922109,-4.0748299122,2.07476452196,0.054346052892000056,5.432387494666667
0.456948082,-4.113871494933333,2.416387581893333,-0.30566625590799995,5.348395910400001
0.464974055,-4.2722694238,2.67485791056,-0.6251619020479999,5.361264189266667
0.473000028,-4.430663935333333,2.8515460492,-0.7547897656413333,5.497429483533334
0.481026001,-4.518728558199999,3.0451557478000004,-0.7289786339079999,5.683806858266666
0.489051974,-4.497533702866666,3.3424563488,-0.5163045565333333,5.9221931662000005
0.497077947,-4.3828297138000005,3.764438843733333,-0.058658123066666575,6.276342653133333
0.505073404,-4.1733503262,4.236876193666666,0.6554424603333334,6.774819212866666
0.513099377,-4.016449777266667,4.544815611800001,1.5519749006000003,7.329506858333334
0.52112535,-4.000968082733333,4.612034583066667,2.5718600909133333,7.966917474
0.529151323,-4.065240995066667,4.5433613538,3.7132083574066668,8.744577763266667
0.537177296,-4.192375127466667,4.423544955133334,4.964342021999999,9.612990942266666
0.545203269,-4.3643089215333335,4.3032698550666675,6.223703988733333,10.485438542266667
0.553229242,-4.562664691666667,4.191216810466667,7.425415643666667,11.3225997446
0.561255215,-4.784856820133333,4.092482574733333,8.557171980933333,12.104410887266665
0.569281188,-4.990402245533334,3.9973162571333334,9.596680451133333,12.798197945000002
0.577307161,-5.070842099199999,3.969164609866667,10.448895327666667,13.299129700266667
0.585333134,-5.088258767133334,3.981345860066667,11.067989667673334,13.638379819466667
0.593328591,-5.138403693866667,3.9419475872666667,11.467823982666665,13.864162806533335
0.601354564,-5.217879319266667,3.7879625717333334,11.667870585600001,13.943606846266666
0.609380537,-5.371967164733333,3.4953126429999997,11.625733948199999,13.868803367533333
0.61740651,-5.562389270533333,3.0894238630666666,11.305375544733334,13.589686682333333
0.625432483,-5.833067846333334,2.6281005859333333,10.627416674800001,13.142533122933335
0.633458456,-5.907726240200001,2.2993477821333337,9.709986814333332,12.516096426266667
0.641484429,-5.756721337666666,2.1190027714,8.6418708806,11.699684648733333
0.649510402,-5.600332895933334,1.9943623543333333,7.330782191533332,10.802563737000002
0.657536375,-5.415984376333332,1.86173967926,5.953253969,9.801235811533333
0.665562348,-5.215889644666666,1.6516063134466668,4.651911385999999,8.7833694524
0.673557803,-4.996379915933333,1.4075575113799998,3.4741586366000003,7.836405673200001
0.681583776,-4.6951609294,1.19421571098,2.3902241072,6.935998244533334
0.689609749,-4.316397047066667,1.0482349555133335,1.3640220003999999,6.065973354466666
0.697635723,-3.93800656,0.8843766451266667,0.4459269206666667,5.334789462466666
0.705661696,-3.5799948692266668,0.65732655532,-0.3428463617333333,4.7931919664
0.713687669,-3.185972627,0.44569581354000004,-1.0425947506666666,4.442306450666667
0.721713642,-2.7898084640333334,0.27153053287999995,-1.6709200540666667,4.270698894666666
0.729739615,-2.3635464032333338,0.10913126471333333,-2.2026796976,4.193588145666667
0.737765588,-1.9617744286866667,-0.06568672653333335,-2.6613409042000002,4.184482046666667
0.745791561,-1.5672432104966665,-0.25612395206000005,-3.0080401102666667,4.181960323333334
0.753817534,-1.3283976555166668,-0.45659205513333334,-3.3072003046666665,4.271291585266667
0.76181299,-1.2380577087833335,-0.6062154571066667,-3.5962108612,4.439758536533334
0.769838963,-1.1831207275833333,-0.7298684736000001,-3.7754284222666668,4.540527928
0.777864936,-1.1670276801166666,-0.7996174792333334,-3.941762034066667,4.653494128733333
0.785890909,-1.2192921161833332,-0.7329224844666666,-4.225725682533334,4.8934224286
0.793916883,-1.28556459745,-0.5761534432466667,-4.614737256333333,5.189418968866666
0.801942856,-1.3736394087833335,-0.41298846202666667,-5.097327740933333,5.574822977600001
0.809968829,-1.4617335955833333,-0.2859081725266667,-5.658206907866667,6.085009850333334
0.817994802,-1.5521928787833335,-0.16879826982666668,-6.268202368133333,6.684141356333333
0.826020775,-1.7870201270233332,0.06927527784666668,-6.853917916466667,7.320574091733333
0.834046748,-2.0250326633833335,0.15610231755999998,-7.403901036600001,7.8922747825999995
0.842042204,-2.1918152968166664,0.1485406339066667,-7.955873076466665,8.448491344533334
0.850068177,-2.36464975675,0.16492624083333332,-8.496125507533334,8.993597239600001
0.85809415,-2.5447304884299995,0.219852914402,-8.954355780533335,9.462299741133334
0.866120123,-2.698064374886667,0.23694829343533333,-9.315413252666668,9.835332777866666
0.874146096,-2.8371807098,0.18831614057533333,-9.61505797713333,10.155806392599999
0.882172069,-2.9389630475999997,0.09979002674866667,-9.8761311532,10.442101333533333
0.890198043,-2.9849012215333337,0.02687449850866668,-10.101920127999998,10.676314146466666
0.898224016,-2.998933490066667,-0.026325599371333327,-10.301530901733333,10.866583695333333
0.906249989,-2.9680787245333335,-0.06630301079999999,-10.390927314933332,10.929009866733335
0.914275962,-2.8727679570666664,-0.1630434632466667,-10.3882518134,10.883958606466667
0.922271417,-2.7189536730666664,-0.26873707375999994,-10.2811913174,10.730078781933335
0.93029739,-2.596922047933333,-0.36238773268666663,-10.052690506133334,10.477856635866667
0.938323363,-2.572659095133333,-0.4735947489933333,-9.709049352466666,10.141955555066668
0.946349336,-2.4708174387999997,-0.7169227560466667,-9.3188739144,9.726379590133336
0.954375309,-2.4297953605999996,-0.7943638920866667,-8.863110161,9.284316883533334
0.962401283,-2.482354196,-0.7146442592266666,-8.248460197333333,8.716349200733333
0.970427256,-2.5416632176666667,-0.5502943495866667,-7.515254020733333,8.093198359066667
0.978453229,-2.601705487733333,-0.357756986242,-6.71570841468,7.526662605733334
0.986479202,-2.697984504866667,-0.10657787921533333,-5.843825340346667,7.079686796533334
0.994505176,-2.8274555366666667,0.24363658625133333,-4.88721504228,6.800139418666666
1.002531149,-3.0112334094,0.6513300835846666,-3.8452119828800004,6.7119307308
1.010557122,-3.219314209733333,1.006115168318,-2.7454708736133333,6.7736581748
1.018583095,-3.4360411326666664,1.2546110013713332,-1.5724427542133332,6.97532353
1.026609068,-3.607536506666667,1.39370729718,-0.31449616754666665,7.302099803866667
1.034635041,-3.7895986398,1.5568801422066665,0.99299405412,7.734808929066667
1.042630496,-3.9580624739333334,1.7524498561000001,2.326099141453333,8.217645330866667
1.050656469,-4.082750590666667,1.9937250473933332,3.6757214865866663,8.731383812933334
1.058682442,-4.157328462600001,2.31140769512,5.025185203586667,9.294334171733334
1.066708415,-4.255067968333333,2.72929516824,6.39060853352,9.958306756
1.074734388,-4.419087966266667,3.210144688613333,7.802101898786666,10.779445447266669
1.082760361,-4.6564223766,3.648931129733333,9.23162981712,11.806155476066667
1.090786335,-4.923953819199999,3.968120749733333,10.743778101853334,13.015839041066666
1.098812308,-5.174397341333334,4.1941998958,12.294221433133334,14.346182228400002
1.106838281,-5.3579329172,4.356286287266666,13.761158053466666,15.665739338266667
1.114864254,-5.4119959512666655,4.439501492133333,15.059134738066666,16.81880131546667
1.122890227,-5.279436731266667,4.472988621333333,16.110562007000002,17.70143201666667
1.1309162,-5.002092488533333,4.534235922466666,16.910682424,18.34968345133333
1.138942173,-4.63755206262,4.670331160200001,17.407510122,18.74073598
1.146968146,-4.256750909453333,4.844874159466667,17.572544543333333,18.846496494666667
1.154994119,-3.8949190218793333,5.0020878950666665,17.42696139066667,18.671328487333334
1.163020092,-3.5898241439793335,5.094201167466666,16.987106387266667,18.229836660466667
1.171046065,-3.352015074019333,5.089505895066666,16.264978854200002,17.535338978733332
1.179072038,-3.1508925040060003,4.985263713266666,15.292125003053334,16.6961539014
1.187098011,-2.9489678144126668,4.753155152066666,14.019693724586666,15.931810372600001
1.195123984,-2.6968251943459998,4.399812452066667,12.471935590120001,15.219750589400002
1.203149957,-2.4023407220793334,3.976975897986667,10.706410853253333,14.485741231933334
1.21117593,-2.0946432670126667,3.5273325913053335,8.714716975253333,13.652896475400002
1.219171387,-1.7965910832126668,3.054936674552,6.562621371453333,12.700273648733333
1.22719736,-1.5520786364793333,2.595045228085333,4.365219942986667,11.701690239466666
1.235223333,-1.3991228818793333,2.1723507277519998,2.2076001487199997,10.741702200666667
1.243249306,-1.3882561604126666,1.7871335975853333,0.1537975313866666,9.914989887666668
1.251275279,-1.4961099704126668,1.4500773203719999,-1.80576038308,9.266674935
1.259301252,-1.6781339168593334,1.1401689502186667,-3.655983034413333,8.851558721
1.267327225,-1.8866528510926668,0.8595076891653335,-5.35625495908,8.679269137666667
1.275353198,-2.0935780048,0.619575970652,-6.859205754413334,8.753927970333333
1.283379171,-2.2956094264333333,0.42625488961866675,-8.133375676346667,9.094878055866667
1.291405144,-2.4869138875933334,0.2749744546653333,-9.134650547946668,9.6552692036
1.299431117,-2.6480267842066665,0.15560986719866668,-9.8675114948,10.280953750933334
1.30745709,-2.7621345996000004,0.061231149445333345,-10.279557196333334,10.684197657066667
1.315483063,-2.8284287610666667,-0.023843408427333332,-10.417293167133334,10.824724586733334
1.323509036,-2.8444695154,-0.097823537194,-10.366455523199999,10.7777220816
1.331535009,-2.830034796333334,-0.15966200833933333,-10.168893432666666,10.587530793466668
1.339560982,-2.8086560725333336,-0.20048702165266666,-9.897195053199999,10.330044567666667
1.347556439,-2.7819655576666666,-0.237795197986,-9.627047411666666,10.076994814599999
1.355582412,-2.7644915898,-0.2838912765193333,-9.408324305266666,9.877780715600002
1.363608385,-2.722342332133333,-0.35661365188599997,-9.253183110599998,9.731759829866666
1.371634358,-2.6515238125333336,-0.46569917400599997,-9.130860583066665,9.607478020266665
1.379660331,-2.5649985471333334,-0.600344075786,-9.010039584,9.4794149558
1.387686304,-2.4829269885333334,-0.749707669066,-8.880781873,9.344229348466666
1.395712277,-2.422612667066667,-0.9059358299526666,-8.767849985666667,9.2297887598
1.40373825,-2.3864659627333333,-1.0650984506526668,-8.665139516333333,9.131424880466666
1.411764223,-2.3520429769999995,-1.2291456838993333,-8.584777896333332,9.056087436466667
1.419790196,-2.3181719302666663,-1.3797817290326664,-8.534476535000001,9.007615052466667
1.427816169,-2.2976765632666667,-1.4976136664793331,-8.545644442333334,9.019337691133332
1.435842142,-2.3089476744,-1.5628219008666666,-8.645077959733333,9.121462506
1.443868115,-2.3740441798666665,-1.5830164472466668,-8.7838740028,9.273501739933334
1.451894088,-2.4750442504000003,-1.5463535845466665,-8.9600510912,9.469469829933333
1.459920062,-2.571531216266666,-1.4591017743206665,-9.147255833600001,9.669472325466666
1.467915518,-2.6547333716666666,-1.3262014131006667,-9.2788894332,9.8092696574
1.475941491,-2.685036389,-1.155235002454,-9.293529573733334,9.821438402
1.483967464,-2.6313536166666665,-0.9416755339206666,-9.166014384933334,9.676339035133335
1.491993437,-2.527379274333333,-0.6962610225206666,-8.896036433866668,9.396236297666666
1.50001941,-2.449716965333333,-0.4213814795206666,-8.478338654533333,9.012019519533334
1.508045383,-2.4416476885333336,-0.13381528658733333,-7.9089589116,8.569528186133335
1.516071356,-2.5132834910666664,0.17249334054600005,-7.078039709733333,8.176209742466666
1.524097329,-2.6910057862,0.507942638746,-5.9249698317999995,8.011686396333333
1.532123302,-2.9839033921333336,0.8838256696126667,-4.4465327258,8.163441249666667
1.540149275,-3.3305060068666665,1.2760961710793335,-2.6842529611333332,8.615112226333334
1.548175248,-3.649497048,1.6859162508793333,-0.7161140124666666,9.265729975666666
1.556201222,-3.8773299216666666,2.115802532339333,1.3275835988666667,9.962589703666668
1.564227195,-3.9635055223333335,2.6097980398993332,3.3324681275333337,10.689201543666666
1.572253168,-3.9140080928,3.1636611380926665,5.259260336066666,11.442636813666667
1.580279141,-3.8391919294,3.7498827654666664,7.0826404248,12.220614030599998
1.588274596,-3.8604376951333332,4.335186385979999,8.788411584666667,13.045564114333333
1.596300569,-4.094809579800001,4.8543732085333335,10.435814379733332,14.004805858866666
1.604326542,-4.608570686933334,5.293967962133333,12.085579362933334,15.185103511133333
1.612352515,-5.378728691999999,5.691900284933334,13.765763790800001,16.6145915242
1.620378488,-6.202079741533334,6.048911698533334,15.420907274400001,18.166779601466665
1.628404461,-6.869604826,6.377785650800001,16.9342712398,19.661305492866667
1.636430434,-7.284519513533334,6.700216960866667,18.09594205193333,20.877134822533332
1.644456407,-7.417223930466666,7.022079467733333,18.767251141333336,21.60372263733333
1.65248238,-7.328061866866666,7.3141823768,18.94011116,21.824331227333335
1.660508354,-7.109211286000001,7.563732687533333,18.613441022000003,21.56869408133333
1.668534327,-6.877416960533334,7.747931543866667,17.881461524933336,20.953862880666666
1.6765603,-6.7102605185333335,7.845646095199999,16.896036148133334,20.14011908853333
1.684586274,-6.641610686133333,7.798623816066667,15.726857821333333,19.189621679066665
1.692612247,-6.642456690666667,7.590362358000001,14.404277102146667,18.141622121733334
1.70063822,-6.6288661482,7.255099455466667,12.990328852413334,17.078881062466667
1.708664193,-6.500490180866667,6.8173577308,11.507094320013334,16.0508392316
1.716690166,-6.203689186000001,6.334983460066666,9.910840797880002,15.026258398466666
1.724716139,-5.733028563066666,5.798427788386666,8.163792483146667,13.942743809533333
1.732742112,-5.094759027066667,5.17702767052,6.262533188013333,12.753340969933333
1.740737567,-4.4556472856,4.459863090453333,4.272728920013334,11.570024277666667
1.74876354,-3.9644863527333336,3.6797491708533334,2.30400377908,10.526019447666666
1.756789514,-3.6862155994666663,2.85778319032,0.4945870397466668,9.682066353000002
1.764815487,-3.6195489645333336,1.90889301292,-1.1355093319866667,9.151887188333331
1.77284146,-3.532795850466667,0.96672134392,-2.684762350786667,8.816132927666667
1.780867433,-3.3283177694000003,0.1038365045866667,-4.049499162053333,8.610865953000001
1.788893406,-2.8410651207333335,-0.75247313188,-5.314426898986667,8.702155598333333
1.796919379,-2.1631355604,-1.5352289200800002,-6.4273505208533335,9.034561578466668
1.804945352,-1.4714664141999998,-2.2207860629466665,-7.3183823580533325,9.470092701933332
1.812971325,-0.8393597285333333,-2.8433939616133332,-7.978518517533334,9.961360371933333
1.820997298,-0.20099587439999997,-3.449096393613333,-8.461845238733334,10.506835000533334
1.829023271,0.44548920793333335,-4.05933383308,-8.785554853866667,11.061135988066667
1.837049244,1.1772132794666668,-4.656130234413333,-9.010432274933333,11.636896393866667
1.8450447,2.0259961046666666,-5.203779649733334,-9.197440179,12.246405469466668
1.853070674,2.9123667159999997,-5.683857663466666,-9.342595386333334,12.810726477066668
1.861096647,3.8539124252,-6.176669121000001,-9.426113732466666,13.340587312
1.86912262,4.707906445,-6.5188050908,-9.477374044866668,13.672473953333332
1.877148593,5.483005754266666,-6.729810079200001,-9.564770889066667,13.875302017333333
1.885174566,6.188621878733333,-6.744809977466667,-9.762925910666667,13.994476725333334
1.893200539,6.70433956,-6.808228175066666,-9.919071069866666,14.148493022666665
1.901226512,7.021237993333333,-7.066100693,-10.017976442599998,14.402074245333333
1.909252485,7.0274465562,-7.352219772533333,-9.9517239886,14.508792167333333
1.917278458,6.8947155635333335,-7.700648562266666,-9.759755834000002,14.498471945999999
1.925273914,6.824285602666666,-8.0936851182,-9.491373888933333,14.497911906666667
1.933299887,6.828990141666666,-8.469869422866667,-9.1750353496,14.523791085333333
1.94132586,6.8069286347333335,-8.805218696733332,-8.836895020866667,14.530851178
1.949351833,6.7703929583999996,-9.078874397333333,-8.556267770133333,14.542979998
1.957377807,6.692145061533334,-9.289685694533334,-8.323978265133332,14.518972736666665
1.96540378,6.532977581333333,-9.484366353266665,-8.1104993502,14.444746899333332
1.973429753,6.358312384466666,-9.731898180466667,-7.9310196876,14.421915720666668
1.981455726,6.280921204866667,-10.0178541818,-7.796681435866666,14.523031233333334
1.989481699,6.218414274866666,-10.327152887733332,-7.623199907866667,14.639680754666667
1.997507672,6.283618100533333,-10.765064811133334,-7.388994757266667,14.879528684
2.005533645,6.5037733396,-11.382011285799999,-6.9344244003333335,15.186010972666667
2.0135291,6.709580946,-12.015215301133333,-6.3366819702,15.446948478
2.021555073,6.7633244037999996,-12.5053810118,-5.716950376933334,15.595440157333334
2.029581046,6.706247266199999,-12.920129966733333,-5.118646756733333,15.708819026666667
2.037607019,6.244686953333333,-13.273805364,-4.450861747933334,15.801904457333334
2.045632992,5.745451196133334,-13.621579361333334,-3.921144016466667,15.920772252666668
2.053658966,5.0439933142,-13.918704732666667,-3.6365630546000003,16.043956245333334
2.061684939,4.043633429333334,-14.154639435333335,-3.5326726038000005,16.251514676
2.069710912,2.6518781347333333,-14.320672036,-3.4649397769333334,16.628445239333335
2.077736885,0.8178906447333335,-14.401710447333333,-3.312769389,17.23676092266667
2.085762858,-1.5411490430666668,-14.355062930666667,-3.0006234008666666,18.208085412
2.093788831,-4.3089503282,-14.1092116048,-2.5858184256666665,19.464965902000003
2.101814804,-7.533406733933333,-13.4851466186,-2.1435360350733332,20.86613746
2.109840777,-10.787166372600002,-12.521575539133332,-1.8027006227333333,22.517155718666668
2.11786675,-14.059457429133333,-11.168558686066666,-1.6910678146666667,24.20742165333333
2.125892723,-17.243665027533332,-9.592744057533332,-1.9708629844666665,25.764083884
2.133918696,-20.320914872266666,-7.732391922866666,-2.668378631266667,27.426823662666667
2.14194467,-23.256375090066665,-5.4452923388666665,-3.5502967832,29.36016190533333
2.149970643,-25.88402042386667,-2.9973859082,-4.639430252733333,31.311917366000003
2.157996616,-27.99487222033333,-0.6261880808666666,-6.123136154799999,33.24760366
2.166022589,-29.995121701400002,1.6474088738000001,-7.814166434666666,35.14079753866667
2.174048562,-31.64692516306667,3.7437560471333335,-9.460220543866667,36.931726284
2.182074535,-32.468790118,5.577851366466667,-11.0970722998,38.29741329466666
2.190100508,-32.606348800666666,7.0556421356,-12.574859460533334,39.114086678666666
2.198126481,-32.18391920733333,8.183801912866667,-13.9493428396,39.40040179333333
2.206152454,-31.059968058666662,8.988747381733333,-15.180194640533333,38.93755622266667
2.21414791,-29.30991312673333,9.489271243,-16.2389489972,37.812854748
2.222173883,-27.1433764776,9.604050317999999,-17.09837813406,36.189068924000004
2.230199856,-24.90225830066667,9.268741186066668,-17.8378228664,34.42641053533334
2.238225829,-22.639503542266667,8.567101947066668,-18.39118862153333,32.60689360933333
2.246251802,-20.4898737586,7.781238642933333,-18.711686770000004,30.884217437333334
2.254277775,-18.190025075066664,6.742131797333333,-18.854168446666666,29.12498963666667
2.262303748,-15.703854560600002,5.090691145266667,-18.978496933333336,27.284137387333335
2.270329721,-13.294431622406668,2.8791444379333333,-19.025650533333337,25.71597039066667
2.278355694,-11.034153111373334,0.5783412539333332,-18.586673355333335,24.093666436666663
2.286381667,-9.158716582973334,-1.5111219800666664,-17.515888341466667,22.197800082
2.29440764,-7.485692723373334,-3.3726073980666667,-16.051354853266666,20.214100305333332
2.302433613,-6.086392275,-5.152950962066667,-14.4346907296,18.658548507333332
2.310459586,-4.6550475436,-6.614949774533334,-12.842658138266666,17.50252511
2.318485559,-3.334275627133334,-7.7477301038,-11.299363199546667,16.56498504
2.326511533,-2.3391571362666665,-8.639822268,-9.805420366879998,15.912634108
2.334537506,-1.7403997420666668,-9.168376715466668,-8.677819315586667,15.328563202866667
2.342563479,-1.341622288946667,-9.478333790599999,-8.015330568986666,14.908649751933334
2.350589452,-1.1102666854133332,-9.633992162866667,-7.72472604152,14.650442673933332
2.358615425,-0.93714459728,-9.759141349333333,-7.564515686386667,14.494768909266666
2.366641398,-0.5598356881466666,-9.872477848866668,-7.356347084519999,14.225930674599999
2.374667371,0.16228504191999996,-10.479515551933334,-6.629873403253333,14.134193657933334
2.382693344,0.3318616232133333,-10.861440213200002,-6.068776321453333,13.916000333933335
2.390719317,0.24240341195333326,-10.659337424733334,-5.78944238012,13.5762601726
2.39874529,0.5075063388533333,-9.806005143800002,-5.650779152119999,13.0970613006
2.406771263,1.2574720065866667,-8.806931336666668,-6.028945731986666,13.146306600600001
2.414797237,2.0969286283866664,-7.443280442333333,-6.953116925520001,13.792876429266666
2.42282321,2.5233604432133334,-6.329850228733333,-7.410133425186667,13.7436346826
2.430849183,2.158911387193333,-5.3708676894666665,-7.831891027853334,13.356390085266666
2.438875156,1.8054107984666665,-4.479115637266667,-8.253761513773334,12.916967612666667
2.446901129,1.51998774216,-3.6594218256933333,-8.707849788439999,12.346456069933334
2.454927102,1.3506302516266664,-3.0935890041800005,-8.853967539266666,11.867899699933334
2.462953075,1.4642996470733334,-2.4831636789400005,-8.792609468933334,11.4379050918
2.470979048,2.211467234406667,-2.0404493970466664,-8.586964193799998,11.220589723666668
2.479005021,3.4971029918733336,-1.7669216476466665,-8.309912268133333,11.385106225666668
2.487030994,4.686326408406667,-1.5809800468466664,-8.023444811333333,11.756548741666666
2.495056968,5.36803232814,-0.9548025135133333,-7.995567830266666,11.885095072333334
2.503082941,6.7820003510466655,-0.48951460531333324,-7.492421181879999,12.364181284333332
2.511108914,8.437018839446667,-0.2894531250466666,-6.932106558346666,12.891111774333334
2.519134887,9.63148756018,-0.6185480277133332,-6.609041849413333,13.634247695666666
2.52716086,10.397013632046669,-1.2044656435799999,-6.211087862613334,14.018000116333333
2.535186833,10.912242221313333,-2.2662107149799997,-5.580836550213334,13.875630196333333
2.543212806,11.354843647446668,-2.88332659398,-5.540614636746667,14.192048994333334
2.551208261,12.021170424733333,-3.2712410687799998,-5.68946291608,14.650630059000001
2.559234234,12.43913882506,-3.5064531723133334,-6.000844542213333,15.101442946266666
2.567351759,12.7657819423,-3.606545797953333,-6.44506508488,15.615024710333334
2.575377732,13.002665646166667,-3.6385915596666667,-6.922275034346667,16.084382281866667
2.583403705,13.014226944533334,-3.7373323877,-7.17673842088,16.330631393533334
2.591429678,12.681135176866666,-3.590534051193333,-7.221694405679999,16.1815765258
2.599455651,11.9454711588,-3.2063537597266665,-7.204814211346667,15.62287315
2.607481624,11.220053831,-2.78928871146,-7.174071216413334,15.016169208733334
2.615507597,10.649707952533333,-2.3521646021933336,-7.261246331346667,14.519523383333333
2.62353357,9.966440359199998,-1.8366868971933334,-7.5368258792,13.876862613333335
2.631559543,9.228541278533333,-1.3361219723266664,-7.543239339,13.128839445333334
2.639585517,8.4998836832,-0.9777354557933331,-7.4352600096,12.35893737
2.64761149,7.8489411989999995,-0.7313027540599998,-7.269598801733334,11.65766606
2.655606945,7.240310605533334,-0.5706029733266665,-7.010960133733333,10.986130389200001
2.663632918,6.8023914024,-0.5337114493266666,-6.315848922573333,10.398934454533334
2.671658891,6.353442255999999,-0.6120280742599999,-5.709318097306666,9.823561700666668
2.679684864,5.884180069306667,-0.8536350726599998,-5.156031513106667,9.350006348400001
2.687710837,5.43938624104,-1.19235030806,-4.724605973706667,9.0748319086
2.69573681,5.046049181973333,-1.5396918455933333,-4.484589545106667,9.061781487533333
2.703762783,4.62401069044,-1.9403865814666665,-4.458220704573334,9.331752068266667
2.711788756,4.036811066106667,-2.4984876473999997,-4.465797774173334,9.6801924088
2.719784213,3.2238007549733334,-3.179569387466666,-4.466492525906667,10.066000661266667
2.727810186,2.1720933601066665,-3.9359057585999997,-4.4528314592400005,10.478171527866667
2.735836159,0.8769454645733333,-4.693111769400001,-4.426514434973333,10.858132957266665
2.743862132,-0.7067908920933333,-5.458121093133333,-4.4177827837066665,11.0999914006
2.751888105,-2.3816091854266666,-6.161279439933334,-4.390159670706667,11.317765254600001
2.759914078,-3.976659933426667,-6.686053133,-4.360881201573333,11.572735283933332
2.767940051,-5.397468789226667,-7.0595763524,-4.346032969306666,11.827362505266667
2.775966024,-6.539488347226667,-7.275470542866667,-4.363642406573334,12.0348282674
2.783991997,-7.47776047376,-7.3855250994,-4.753226248533333,12.182817584066667
2.79201797,-8.095939445359999,-7.451956240333333,-5.056315644666666,12.442232824600001
2.800013427,-8.407854461533333,-7.5591442743999995,-5.3410077096,12.7614455302
2.8080394,-8.434473260133334,-7.726685969,-5.543663692533333,13.01860147
2.816095889,-8.090510845066667,-7.845463657333332,-5.603218491933333,13.109761974
2.824121862,-7.4654138564000005,-7.908163229533333,-5.601678371466667,13.113976376
2.832147835,-6.7742574373333335,-8.058190409266667,-5.716641012866666,13.157221686666668
2.840265359,-6.0945198694,-8.412370999666667,-6.002182801599999,13.347472816
2.848291332,-5.714363797466667,-9.5523030598,-6.396882661199999,14.247247417999999
2.856317305,-5.497921816733334,-11.457048416266666,-6.446330610933334,15.795044144666667
2.864312762,-5.2672528584,-14.232003021066667,-6.196412468,18.152972722
2.872338735,-4.852824656066667,-17.449271773866666,-5.712616475466667,20.900382163333333
2.880364708,-4.2840950012666665,-20.0311152136,-5.40470132834,22.99147572
2.888390681,-3.6143940448666667,-21.880193010533336,-5.0834374309333334,24.382568299333332
2.896508205,-3.0048955758133338,-22.713444391733333,-4.797718393886666,24.851452692
2.904503661,-2.5238846937333337,-22.81571283326667,-4.56400871682,24.683296680666665
2.912621185,-2.0912706533866667,-22.56592369066667,-4.293357265086667,24.209121755800002
3.008654741,-1.7795877456466667,-22.05384958574,-3.7595874350066665,23.479819415399998
3.016680714,-1.6095402081666668,-21.45439416557333,-3.22438693454,22.736299706833332
3.024706687,-1.7026334126533333,-20.88788132656,-2.7881778916399997,22.076779931193336
3.032732661,-1.9696579297306667,-20.36433561633333,-2.3913660248733333,21.39680755386
3.040758634,-2.201256751984,-19.775779183613334,-1.9220003327066666,20.63461936791333
3.048784607,-2.2867719649973335,-18.950554084593332,-1.2998179316733334,19.627981842433332
3.056780063,-1.9984189668973333,-17.278716532313332,-0.5979642431133333,17.834470519426663
3.064806036,-1.5216219106973334,-14.818442121846665,-0.2724283099533333,15.365487411293334
3.072832009,-1.0343898852973334,-11.48259539606,-0.2653029640866667,12.068222685093334
3.080857982,-0.6927961350306667,-7.706326818766667,-0.47761245175333333,8.347896700693333
3.088883955,-0.49365185903066666,-4.589716291719999,-0.49063455665333333,5.27861904616
3.096909928,-0.44656482541733333,-2.23330690096,-0.48424348835333336,2.950645499493333
3.104935901,-0.4582248290773333,-0.9377230644200001,-0.42888128762,1.6769190612
3.112961874,-0.476262434364,-0.3983685016733333,-0.2529633045533333,1.1950870410666667
3.120987847,-0.5130930503573333,-0.206788619358,0.007600974979999986,1.088882209
3.12901382,-0.501502664924,-0.20112977027799997,0.13272043856666665,1.2118944895333332
3.137039794,-0.515567104062,-0.2032641728713333,0.26110445649999997,1.3323101329000002
3.14503525,-0.5654772997286667,-0.21790588696600002,0.3716501870666667,1.4389773844066667
3.153061223,-0.5766123374713333,-0.1928176561926667,0.42010835000666674,1.4932485485399998
3.161087196,-0.600059882838,-0.213359276446,0.46187616973333334,1.5291457860000002
3.169113169,-0.6467782259579999,-0.28189650375933334,0.46800460804599997,1.5915630932133333
3.177139142,-0.6816259225913333,-0.3635655005726667,0.45115884134600004,1.6561973060866666
3.185165115,-0.6809844335246668,-0.413621441506,0.4427168209326667,1.68049649862
3.193191088,-0.6436642567246668,-0.444508687626,0.4454949695993334,1.6690525461533334
3.201217061,-0.5899013956046666,-0.47605444585266665,0.4359004019993334,1.6611527792866667
3.209243034,-0.5335845986913333,-0.515180404966,0.4151781081726667,1.6725306998866667
3.217269007,-0.488195621958,-0.555321645726,0.372196833266,1.7045387016199998
3.22529498,-0.47687675555133335,-0.6029911915326667,0.29386107124599997,1.7457667824466665
3.233320954,-0.5037535945513334,-0.6619040886126667,0.180879211386,1.7527654128466668
3.241346927,-0.5605815728446667,-0.7477057853946667,0.01263268787933333,1.7266649559133331
3.2493729,-0.6279268542846667,-0.8753507375346667,-0.2053472518806667,1.6969942365133335
3.257368355,-0.67332294384,-1.0436692475746667,-0.444926961214,1.71307325738
3.265394328,-0.6547663648866667,-1.2210788170266667,-0.6573949177473334,1.76337254678
3.273420301,-0.6446619311886667,-1.4294363100933334,-0.7616011301073334,1.8711723094466668
3.281446274,-0.5823969006486667,-1.57113379636,-0.7866280873073334,1.9732237981999998
3.289472247,-0.46195251541533333,-1.6462613582666665,-0.6868604023866667,2.0565785700666668
3.297498221,-0.28442293401533336,-1.6861456553333334,-0.46854794818000006,2.1699784011333336
3.305524194,-0.11035191614866666,-1.8508488099333333,-0.17358976999333334,2.3822249718666666
3.313550167,0.0029762943579999977,-2.0745946566666666,0.1460128148733333,2.6454879771999997
3.32157614,0.11040565172466667,-2.0561540445333333,0.43464546207333327,2.7311951120000004
3.329602114,0.23131848174466665,-1.8601563374666665,0.6756072362066665,2.8129614784666668
3.337597569,0.372326469398,-1.6022440752,0.9029577254733333,2.9631065571333335
3.345623542,0.4905414501313333,-1.4084852934666665,1.0678567885799999,3.0557495726
3.353649515,0.5732845782713334,-1.29316621632,1.1061853408286666,3.03207313822
3.361675488,0.6503940144646666,-1.2178738237433333,1.0495332717353334,3.031730265686667
3.369701461,0.6570710340646666,-1.221472497876667,0.9546859740953333,3.0952472574866667
3.377727434,0.6899950344913334,-1.2412331383433333,0.8932649294286665,3.1410198145533332
3.385753407,0.7063333193012666,-1.15848469341,0.9006564776286666,3.064251720353333
3.39377938,0.7137830733832666,-0.96697703805,0.9671961784553333,2.9168888691599997
3.401805353,0.7432105540832666,-0.6938013057166668,1.0198627154286666,2.8995448134933333
3.40980081,0.7971759636499333,-0.36678889391666664,0.9629281680219999,2.9539628114266665
3.417826783,0.8326293467832666,-0.012944203583333369,0.7841018995233333,2.9957507700933332
3.425852756,0.8650304317165999,0.4635889232833333,0.49420919425666654,2.9226525852933336
3.433878729,0.9278401374766,0.9722820461499999,0.1425904274566666,2.7758436312266666
3.441904702,0.9879235585232667,1.1941670518166667,-0.1884091058766667,2.78205288296
3.449930675,1.0096827268566,1.1838927130833334,-0.47498178474333336,2.7653501826933335
3.457956648,0.9999920845232667,1.07292636445,-0.7335649807433333,2.6641816684933333
3.465982621,1.0249875545899334,1.0037077050633334,-0.9076638856700001,2.6168739884266667
3.473978077,1.1047856410566002,1.0050442994833333,-0.9402589479253333,2.691097072006667
3.482004051,1.2081783215366,1.0420101663666668,-0.8438679058516667,2.7267509402733334
3.490030024,1.3649031718699334,1.1600083372153334,-0.6943437257856666,2.6543043835400004
3.498055997,1.4962603489899335,1.3380390982886667,-0.5292949040456667,2.55704354414
3.50608197,1.6104606946466666,1.469082309882,-0.36258296964566666,2.59811560174
3.514107943,1.6901807308199999,1.520254027922,-0.35128885903233337,2.6857138304
3.522133916,1.6872096856399998,1.414447975222,-0.46442540485233336,2.614622574733333
3.530159889,1.6239847262933333,1.2416338483820002,-0.5579778035323334,2.4622813731999997
3.538185862,1.5909201065599998,1.0982831200486667,-0.625875027967,2.343332075466667
3.546211835,1.5848045666933332,0.9711081227153334,-0.6251321156736667,2.2389310715333335
3.554237808,1.5810578584266666,0.8656468193153334,-0.525558408089,2.1275822536666666
3.562263781,1.5386701504266667,0.7855033914486665,-0.34738683701566664,2.0111672748
3.570289754,1.4631224035933335,0.727796061882,-0.12265694934900001,1.9278670182666668
3.578315727,1.3758849262666668,0.6928895513753334,0.13644326531766668,1.9300682820666666
3.5863417,1.29021242058,0.6790132403886666,0.39537957511099997,1.9950305644666666
3.594367673,1.2095653493999998,0.6652945876686667,0.6064237594443334,2.0480109138666664
3.602393646,1.12112352052,0.6437012345153333,0.7393522262373333,2.0506987336
3.610419619,1.0397076487399999,0.6311908424466667,0.826447486838,2.019762264266667
3.618445592,0.9328051109733333,0.6309338053633333,0.8225699106446667,1.9207237942599997
3.626441048,0.8317845483399999,0.6092627049033333,0.7056324640246667,1.7922067408800002
3.634467021,0.7658654987733334,0.5609838923433333,0.6239037195179999,1.7319457515666667
3.642492994,0.7352519810133333,0.5836361170433333,0.592113176938,1.7525273654333333
3.650518967,0.7034201840533334,0.6085718393966667,0.537013371758,1.7990570572333333
3.65854494,0.6287361165133333,0.5662884394833333,0.48221604029133336,1.7826615731
3.666570913,0.5726106266133333,0.5140419722033334,0.406798108398,1.7705860168333334
3.674596886,0.56731689968,0.47363589209,0.27591616308,1.8064853087000001
3.682622859,0.63376668488,0.4619913776766667,0.09846331274000002,1.8923104326333333
3.690648832,0.7605972985133334,0.4833493232833333,-0.11209945686,1.9904736838333332
3.698674805,0.8843802511733333,0.49658465783666667,-0.3604573568600001,2.005632862566667
3.706700778,0.9834290881933333,0.4809204816966667,-0.6216018041666668,1.9474728074333332
3.714726751,1.05365323824,0.45167865158293335,-0.83537953698,1.8782174200333333
3.722752724,1.1167909165199998,0.4415387908749333,-0.9812111536933333,1.8476650831
3.730748181,1.1724643369666667,0.45204078655693336,-1.0793898264666666,1.8540987585666666
3.738774154,1.2273053726,0.4665147195402667,-1.1412874857666666,1.91186648504
3.746800127,1.2528671900933335,0.4788616369336,-1.18736279806,1.9644229319533333
3.7548261,1.2525922676399999,0.4851420511936,-1.2220540364733332,1.9971434529999998
3.762852073,1.2417196969666666,0.4915834854202667,-1.2304115931400001,2.006015145733333
3.770878046,1.2281744699133335,0.5095991999069333,-1.1948534648066667,1.9847199178666668
3.778904019,1.1457164268133333,0.5131720612602667,-0.9370777448733333,2.0033754388666667
3.786929992,1.0410617451333333,0.48573910694693334,-1.0013955434733333,2.0537734701333337
3.794955965,0.9187597056866667,0.4260930021756,-1.1185276667400001,2.134528908666667
3.802981938,0.8547560315533332,0.34265022874893336,-1.1977922122066667,2.1590184212000003
3.811007911,0.81263775242,0.2932095329036,-1.2630025228066666,2.167978262533333
3.819003368,0.8218635500199999,0.28301069339693335,-1.3033289909399999,2.1962942934
3.827029341,0.8540243248866666,0.26815428535433333,-1.30804376602,2.2271249956666663
3.835055314,0.85247780682,0.24946716626806667,-1.2971154848733335,2.2248166191333336
3.843081287,0.8095665713533332,0.22946346501606665,-1.30161708196,2.1867230288000004
3.85110726,0.7436660389333334,0.21600949863406668,-1.3293759981733333,2.14366705928
3.859133233,0.6575211862666667,0.21290545364073335,-1.3717285474199998,2.1455798240133332
3.867159206,0.51607436934,0.22258477707406668,-1.4172526359733333,2.2197938618133333
3.875185179,0.3884443839599999,0.26445398430739997,-1.5024790128399999,2.3394272725466667
3.883211152,0.30814200242,0.3182170957474,-1.63010571804,2.4892863450799996
3.891237125,0.2946999231933333,0.35809285741406666,-1.8001388232400002,2.6567975928133336
3.899263098,0.4124210317933333,0.4050947199740667,-2.174048169506667,2.7692936100133334
3.907289071,0.7463549057733333,0.49793608690073327,-2.2167023341066665,2.9559482193466664
3.915315044,1.1659485181533331,0.6551042954520666,-2.2664903323066667,3.218594900146667
3.923341018,1.4381071090866666,0.8075094680253999,-2.37624969484,3.4834392799466665
3.931366991,1.6041818141533333,0.8053132534287334,-2.49091243744,3.6787327405466663
3.939392964,1.65177961982,0.7936217626220666,-2.671403026573333,3.8437649300133336
3.947418937,1.6238575299533333,0.857319436498,-2.9234250704533333,4.016028536746667
3.95544491,1.6106166124866668,0.9841111441846666,-3.2126042365866665,4.23934955048
3.963440366,1.6311001857533334,1.0767757475713333,-3.506021976453333,4.498655817413334
3.971466339,1.5731432517800001,1.1942399760246665,-3.490370686833333,4.558277309
3.979492312,1.4577598333800001,1.345702195178,-3.5050473849,4.7057373164
3.987518285,1.4233960629133335,1.466321039218,-3.4976819991666663,4.784193596866667
3.995544258,1.4484922250466667,1.5088869571513333,-3.420032373966666,4.739053088533334
4.003570231,1.4532423497133335,1.5215848604846665,-3.2865989366333332,4.642877899466667
4.011596204,1.3863966625000002,1.498926480618,-3.141180038366667,4.529026567066667
4.019622177,1.19978884074,1.4263477802046665,-3.036812178166666,4.449636944933333
4.027648151,0.7826718808733334,1.3571194966446667,-2.931698433433333,4.254260192133334
4.035674124,0.2845857780733334,1.2777304331113335,-2.7122797647,3.8922611520000006
4.043700097,-0.11268197680666663,1.105222797371333,-2.3658655165333333,3.479657244266667
4.05172607,-0.5433784960066667,1.1485322872600001,-2.03475322712,3.217848673266667
4.059752043,-1.0292736528733333,1.3259549696933335,-1.6735057829933335,3.1828655703333335
4.067778016,-1.5423483529400002,1.57298685704,-1.2362794557266668,3.3316126627333333
4.075803989,-2.110092067606667,1.852256822506667,-0.7143746693266667,3.6292580849333334
4.083829962,-2.741239547606667,2.1997743049733334,-0.13295605972666666,4.036513014333334
4.091825417,-3.327510865413333,2.5013408819733334,0.17710994090666668,4.711392437
4.09985139,-3.8730246541466666,2.6641043821733335,0.54514214204,5.276591723066667
4.107877363,-4.498828919679999,2.76008950864,0.93089504244,5.895955769933334
4.115903336,-5.216592343413334,2.8775799115066665,1.26366879144,6.5953953822
4.12392931,-5.880378150746666,3.028076791706667,1.5158880075066667,7.237519601200001
4.131955283,-6.522570705013334,3.24069213864,1.78834471704,7.8858544839333335
4.139981256,-7.057789293546666,3.4739662329199996,2.080569187773333,8.427092089466667
4.148007229,-7.525865427279999,3.6299653688799998,2.3436326503066667,8.880243446333333
4.156033202,-8.02512054408,3.71627419788,2.59962546024,9.376517020400001
4.164059175,-8.548848660400001,3.89275803562,2.7661146640066665,9.922442359466665
4.172085148,-8.928325016866667,3.9678681055333334,2.8889065900600004,10.327494099733334
4.180111121,-9.0980894084,3.8814769267999996,2.9490304309999997,10.459645235466667
4.188137094,-9.078764978533332,3.6378729343666665,2.88465752194,10.324108195933333
4.196163067,-8.887423324066667,3.2778806051,2.673646861214666,9.9574411246
4.20418904,-8.498428598533334,2.8003921032133334,2.3834054012213333,9.3867763524
4.212215014,-8.0363887782,2.2627896785466666,2.043620226681333,8.8048620578
4.220240987,-7.536129951133334,1.8604741493466668,1.7150846937546667,8.204384324533333
4.228236443,-6.897609392266667,1.5912309725866665,1.4265068192633334,7.476773610466667
4.236262416,-6.157028452213334,1.3743322292933333,1.2515727022633334,6.701173147733333
4.244288389,-5.378103128713334,1.1114254712886664,1.2051474311966666,6.034768334733333
4.252314362,-4.485586166246666,0.7627400556686666,1.17321906673,5.460603228133333
4.260340335,-3.5567950883133332,0.419230230602,1.1672016201966666,5.0447777718
4.268366308,-2.62255996058,0.13685371080199998,1.1680409966633334,4.760517582933334
4.276392281,-1.6622990289133333,-0.08473373253800001,1.10779998093,4.484809620066667
4.284418254,-0.7144761084466668,-0.258962368938,1.00956601093,4.253714617066667
4.292444227,0.20982675562000003,-0.4132289091513333,0.9348862388633333,4.113657523533333
4.3004702,1.0721108754866668,-0.526796161138,0.9111995040633333,4.069772567266666
4.308465656,1.8550490061533331,-0.5743682513713334,0.9570716241233334,4.1459654666
4.316491629,2.5658525466866666,-0.556533178698,1.079442564582,4.329187965133333
4.324517603,3.182858975753333,-0.425615009678,1.256748672242,4.6543072674
4.332543576,3.8224482854866664,-0.21326054827800003,1.5370950300486668,4.989365217533333
4.340569549,4.426093800953334,-0.05410890674466667,2.1010615983753334,5.458606762133333
4.348595522,5.051196829553333,0.017001250428666664,2.3917125701333335,5.9136856556
4.356621495,5.631805261033334,0.05306606197533334,2.5811371644,6.409939948933333
4.364647468,6.148251756066666,0.11093297704,2.6840828498,6.8875782978
4.372642923,6.558121713,0.22322871987333331,2.742043376,7.2756602448
4.380668896,6.8920413970666665,0.3681622574933333,2.7803004980666666,7.592691977466667
4.38869487,7.185776265466667,0.5293985992266667,2.8342052062666667,7.887218041200001
4.396720843,7.518581040866667,0.6600566615000001,2.9407744487333334,8.235038658866667
4.404746816,7.8319717408,0.8004786401666666,3.0855665286666665,8.581250332533333
4.412772789,8.107071812933334,0.9861408382466667,3.256731883733333,8.908481309933334
4.420798763,8.3625960348,1.2344997346333335,3.4393122832666667,9.245413389666668
4.428824736,8.6049446422,1.521889285233333,3.614173158066666,9.592322103266667
4.436850709,8.8242088634,1.8325405756266666,3.7693495274,9.932692402533332
4.444876682,8.9990115164,2.15160064696,3.8816213767333334,10.233971234466667
4.452902655,9.155724620600001,2.4861090421600003,3.9130384604666664,10.500525216933333
4.46089811,9.3911033946,2.8283020893599997,3.641870101333333,10.656849421599999
4.468924083,9.547584533466669,3.1871802369466664,3.557048813533333,10.880620826866666
4.476950056,9.640535672333334,3.526065754893333,3.4666819731333334,11.042790716266667
4.484976029,9.611780547933334,3.8418630758999996,3.420139726,11.107146028399999
4.493002002,9.4688907304,4.122519830886667,3.4577911694666668,11.093370096600001
4.501027975,9.217560164,4.3716832002,3.563941717133333,11.015978941133334
4.509053948,8.8848852792,4.584070921,3.690299860666667,10.8795769848
4.517049405,8.468308384866667,4.785119803800001,3.7483713467999995,10.628032145866666
4.525075378,8.0157430964,4.9276635488,3.7297956308,10.2957327938
4.533101351,7.507999769666667,4.960584545133333,3.6623033047333333,9.868571608066668
4.541127324,6.951558876066668,4.824675718933333,3.5262046655333332,9.3108818488
4.549153297,6.315377171846667,4.5443722407,3.330271728866667,8.6149469984
4.55717927,5.615635871886667,4.114010190966666,3.10509613756,7.918794517333334
4.565205243,4.827402305553333,3.5521201451666666,2.917747438026667,7.367611357
4.573231216,3.92024981182,2.8785598118999998,2.778721670426667,6.942341688266667
4.581257189,2.84901250202,2.1392811457666667,2.6467626532933335,6.640375956400001
4.589283162,1.6614414214866666,1.4151406606333334,2.4928288142733335,6.451705829000001
4.597278619,0.4064231872199999,0.7130629221666667,2.3339948456533337,6.4155781743333335
4.605304592,-0.9344222389133333,0.0057941436999999615,2.1787004710333333,6.621752898333333
4.613330565,-2.358332475446667,-0.6746925989666667,2.0466457924333334,7.071680274399999
4.621356538,-3.88075412158,-1.3022288004333333,1.9431991657666667,7.7466225162
4.629382511,-5.473373222646667,-1.8732065201000003,1.8924651544333335,8.574277649533334
4.637408484,-7.139933649646666,-2.3228716532333333,1.7824919781,9.520861461133334
4.645434457,-8.85772784518,-2.6499986807666667,1.5415491243800001,10.603562522533334
4.65346043,-10.445691521779999,-2.879629898086667,1.1201769491133333,11.7217679596
4.661455886,-11.892353756846665,-3.077697149953333,0.60412254138,12.902615653533333
4.669481859,-13.22316423996,-3.288143761986667,0.038083241446666645,14.206549683933332
4.677507832,-14.419426662933335,-3.5328852812533333,-0.5783484835799999,15.502257897666668
4.685533805,-15.4163996368,-3.7860118548533332,-1.2211165010466667,16.606437496
4.693559778,-16.214519690666666,-3.9829770088533336,-1.8433222671133334,17.482752064733333
4.701585751,-16.782577831399998,-4.095181624119999,-2.3602132459133336,18.10179315126667
4.709581207,-17.153732616533333,-4.13818019232,-2.7141390820266666,18.501546075333334
4.71760718,-17.384275054,-4.093257331853334,-2.929314531873333,18.723176955999996
4.725633153,-17.406952856666667,-3.9724205017200003,-3.0908760487866664,18.716724403333334
4.733659126,-17.139432079333336,-3.82723515832,-3.2766761243199998,18.417191530000004
4.7416851,-16.5741826998,-3.7137302239866665,-3.4922765989933335,17.828319713533336
4.749711073,-15.785757445133333,-3.6672346591866667,-3.6894102354866667,17.037223075266667
4.757737046,-14.872522543999999,-3.6786218961199997,-3.70783471462,16.1596598514
4.765763019,-13.763957213800001,-3.7428548812533338,-3.5474002997,15.102865681933334
4.773788992,-12.5912730528,-3.816933345733333,-3.1636742909666666,13.978774688533331
4.781814965,-11.408391951999999,-3.798276185933333,-2.6256539027,12.821248191666665
4.789810421,-10.219614664400002,-3.62644710536,-2.0044891675666667,11.599062161333334
4.797836394,-9.04633992504,-3.262188990866667,-1.3242974758333332,10.3439628078
4.805862367,-7.93756383276,-2.7453931490000003,-0.6287807147,9.165671991733332
4.81388834,-6.906269454886667,-2.1454131762000004,0.016094446166666703,8.109084962533334
4.821914313,-5.914340210206666,-1.5335746765333333,0.5698262055666667,7.203471658133334
4.829940286,-4.928858344006668,-0.9572429975333334,1.0410756270333335,6.479743493066666
4.837966259,-3.9145075162733334,-0.42701455760000007,1.4361017227666666,5.899684350133333
4.845992233,-2.8721642496066666,0.0644862968666667,1.7736952146333336,5.426672719733333
4.854018206,-1.8908369064066666,0.5195695876,2.0488251051,5.091066311666666
4.862013661,-0.9642914772066666,0.9748631953333333,2.244788408373333,4.8934245026
4.870039634,-0.07674811680666664,1.4641144116,2.3034527779333334,4.811419813266666
4.878065607,0.8463650067266667,1.9272928714,2.235380093333333,4.793734228333334
4.88609158,1.74100608826,2.3668919403333333,2.1334645908066667,4.9605867052
4.894117553,2.573698170993333,2.7993636606666663,1.9808556875764733,5.3183584565999995
4.902143526,3.3318494796600002,3.1946915943333334,1.8366548380431398,5.777722834133333
4.910169499,4.070936902393333,3.573957999426667,1.760697825869807,6.3370454778
4.918195472,4.7766466777000005,3.8982264517333336,1.7076919795164733,6.936584116666666
4.926221445,5.481317647353333,4.163744147466667,1.6409479937164733,7.5259761694
4.934216902,6.196956062146667,4.3556869982,1.57067085118314,8.091059311933332
4.942242875,6.856389490800001,4.466367546533333,1.50328296038314,8.598168812333334
4.950268848,7.4673155146,4.507759475533334,1.4241617045164732,9.056755486066667
4.958294821,8.0713023822,4.483124367266667,1.3142502309164734,9.493596777666665
4.966320794,8.665653324200001,4.4232283114,1.1670950493498067,9.9309826634
4.974346767,9.254065577,4.3580523807333345,1.0007786195498065,10.386466659466667
4.98237274,9.7903279936,4.2793289024,0.8602714777764734,10.816375503666668
4.990398713,10.242529264533333,4.176156520666667,0.79502098570314,11.186385337266668
4.99839417,10.582103124533331,4.0592851160666665,0.8178454399698066,11.4640343734
5.006420143,10.7601493828,3.9043130873333336,0.9537040870298067,11.600810631999998
5.014446116,10.809219296000002,3.7018756468,1.1833154837933333,11.621016741333333
5.022472089,10.810288301333333,3.483233761666667,1.4040168762599998,11.594898472533336
5.030498062,10.743418756333334,3.1944299856000002,1.5674862862333332,11.474456296333333
5.038524035,10.631420643333334,2.9102300246,1.6978871584533335,11.302186369333333
5.046550008,10.484522723333333,2.6746194521333333,1.79446991292,11.1009212984
5.054575981,10.320376331999999,2.5079727014000004,1.8828596036533332,10.903799032666667
5.062601954,10.143079184666668,2.425932153133333,1.9558314323866668,10.723876579
5.07059741,9.919907950866667,2.4053432783333335,2.0066316763866667,10.523771358333333
5.078623383,9.598451295666667,2.428147570333333,2.0667048772533336,10.2530855382
5.086649356,9.149737166466668,2.462826554066667,2.17658668362,9.881187501733333
5.094675329,8.598678492866666,2.505884170666667,2.3160647948866666,9.4258955228
5.102701302,7.991056855133333,2.5436446668,2.4181872765266665,8.9064856138
5.110727275,7.306319776866667,2.553254922333333,2.424520611766667,8.292715003666666
5.118753248,6.524712085597333,2.4831539154666666,2.324550421562,7.5777614202
5.126779221,5.703922621264,2.33330659874,2.123108680542,6.971340452133333
5.134774677,4.849649651730667,2.14823423234,1.7840672726753333,6.535355471466667
5.14280065,3.9268371263306667,1.9748935144066668,1.4014131780086667,6.2251304882
5.150826623,2.9121671357973336,1.8365392685600002,0.9907881493420001,6.103152456999999
5.158852596,1.7904674211306668,1.67700394796,0.5794647450086666,6.169557059533334
5.16687857,0.5495892838640002,1.4166399002266665,0.20688087887533332,6.377883951133333
5.174904543,-0.842465305469333,1.0252155622266668,-0.12579653319133338,6.7208663922000005
5.182930516,-2.3678617794693326,0.47827617329333333,-0.38649014685800004,7.242686760533333
5.190956489,-4.041873073669334,-0.31969607670666667,-0.5339006866446667,8.0159325472
5.198982462,-5.960597387802666,-1.3984736121733334,-0.5956038441113333,9.199561802
5.207008435,-8.003944237936,-2.6341611699733334,-0.5614364749113334,10.7007755658
5.215003891,-10.049930254336001,-3.90827115324,-0.3801811820446667,12.347240876733334
5.223029864,-11.950670687269334,-5.037445353773333,-0.05934859571133337,13.936925447733334
5.231055837,-13.486866251669333,-6.022795151906667,0.3871195668553333,15.3921203632
5.23908181,-14.711517969733334,-6.898917102106667,0.9225883523266666,16.862458344
5.247107783,-15.8012963614,-7.56156811658,1.4715954263466666,18.22224473873333
5.255133756,-16.678313446133334,-8.064927450246666,2.104323732813333,19.3115660374
5.26315973,-17.3206664402,-8.49172422038,2.7324412305466668,20.138061944799997
5.271185703,-17.729067611666668,-8.853821976466666,3.3354907472799997,20.690399086866666
5.279211676,-17.931095441333333,-9.102414416733332,3.884411060813333,20.97547872
5.287237649,-17.949146015999997,-9.165596246133333,4.33041123948,21.014459155999997
5.295263622,-17.757309341333332,-9.010986709039999,4.628253980479999,20.791708912666664
5.303289595,-17.318963813866667,-8.623354450313334,4.7526800255,20.298849083133334
5.31128505,-16.577580451933336,-7.892965936113333,4.712009269006667,19.472448691533334
5.319311023,-15.408358065466667,-6.8005100406466665,4.5179253240733335,18.207981467533333
5.327336996,-13.921779632666667,-5.479684813646667,4.162240090006667,16.663576268
5.335362969,-12.253971290866668,-4.06312416398,3.591113406473333,15.048126808866668
5.343388942,-10.573868815193332,-2.7354614736466667,2.8843751888066667,13.591286342066665
5.351414915,-9.06567153926,-1.4873670103133334,2.122079799606667,12.419500543600002
5.359440888,-7.6132942835933335,-0.23840276411333333,1.36706970334,11.4177546684
5.367466862,-6.0785076775933335,0.9135560830866667,0.6811648666733333,10.525585025333333
5.375492835,-4.5746524809933335,1.9794521172866666,0.04584156467333337,9.832212339466668
5.383518808,-3.12975269966,2.9889657179533335,-0.5038417439266667,9.3642686208
5.391544782,-1.7127446810599998,3.92209906582,-0.9559290509333334,9.079213083466668
5.399540237,-0.2988553681266668,4.737350543353333,-1.2965931197799998,8.948427893466667
5.40756621,1.1120761552066665,5.394033225353334,-1.5190786740266666,8.954599622133333
5.415592183,2.459397729206666,5.870202271126667,-1.5935780903533332,9.0502589848
5.423618156,3.66316181814,6.1829646746,-1.51416969704,9.182392366333334
5.431644129,4.6892067908733335,6.344350687666667,-1.3554730614933335,9.354385473266667
5.439670102,5.55474545154,6.3878712654,-1.1220924894933333,9.556101532733331
5.447696075,6.2985699017400005,6.3488642056666675,-0.8404029727600001,9.7661315112
5.455722048,6.949996089873334,6.2507390022000004,-0.49134881902666666,9.968320585666667
5.463748022,7.5281817435333345,6.1208646456,-0.11711787789333336,10.1604732118
5.471773995,8.009195359466666,5.9732205072,0.25306349984,10.317118294933334
5.479799968,8.375018151533334,5.802135372066667,0.58171677184,10.429132707333334
5.487825941,8.651645310666668,5.6111983298000006,0.8382369398399999,10.5039690024
5.495851914,8.831059424,5.3979161579333335,1.0533222873733332,10.515818583133333
5.503877887,8.909849039600001,5.1647978464,1.2368099491066666,10.448448545600002
5.511873343,8.893765576533333,4.939297676,1.3837029099799998,10.3136466048
5.519899316,8.792938009733332,4.737032635933333,1.4844938476933331,10.123785085000002
5.527925289,8.6305621782,4.581642691266667,1.54426748754,9.907901106533334
5.535951262,8.480733553466667,4.4892128308,1.5562968333733334,9.7332552816
5.543977235,8.409541130000001,4.4619991938,1.51343438626,9.6546277972
5.552003208,8.414986292466667,4.465597534133334,1.4346296946400001,9.653173214533332
5.560029182,8.487431399,4.454600334133334,1.2956541637733332,9.7017811884
5.568055155,8.597670046466666,4.4444350878000005,1.1082494675733334,9.7880968648
5.576081128,8.689410464,4.444858201333333,0.8870448767733332,9.865320495466667
5.584107101,8.7298733394,4.428332742066667,0.66836807124,9.891527954133332
5.592133074,8.746221478866666,4.3813051542000006,0.46120139150666667,9.883843754199999
5.600159047,8.739328257333334,4.333783785533333,0.2736422319066666,9.8528915278
5.60818502,8.7006298066,4.318177032533333,0.14685580720666663,9.805169884000001
5.616210993,8.639550240933334,4.2940679710000005,0.040164738779999945,9.7315390566
5.624206449,8.5757002196,4.2618996462,-0.043926725926666715,9.6507180608
5.632232422,8.511739826333333,4.234537537933333,-0.10180405194666674,9.5740255858
5.640258395,8.428251997733334,4.209783395133333,-0.12262585374666672,9.487294934666666
5.648284368,8.296260992799999,4.1555308023999995,-0.13951078468666672,9.345565765533333
5.656310341,8.047036107466667,4.037948783266667,-0.17952181711333337,9.070817550066666
5.664336315,7.625801754066667,3.8336512088666668,-0.2559576810866667,8.614452932266666
5.672362288,6.997994963400001,3.534517923986667,-0.3761174580666668,8.064536606733332
5.680388261,6.167253271799999,3.195871432626667,-0.47621099166666675,7.625761775466667
5.688414234,5.14979105,2.8339395205600004,-0.5493673325333333,7.3065432302666675
5.696440207,4.021012210866667,2.488149054886667,-0.6182948272,7.0780360602
5.70446618,2.8270346006000002,2.2210362275526667,-0.6971820514000001,6.950449883733333
5.712492153,1.5783657392,2.0222341060793334,-0.8385864734666667,6.960477887666666
5.720518126,0.23271601966666655,1.7629346211726669,-1.0373307068666666,7.134569806866666
5.728544099,-1.257454332066667,1.3558868408393334,-1.2796370724333335,7.493238085333333
5.736570072,-2.9326772690000005,0.7831073284393334,-1.5087428052733334,8.118628496533335
5.744596045,-4.786984253266667,0.021483246506000066,-1.6598908145666667,9.004951761200001
5.7525915,-6.770794232866667,-0.9183920858273333,-1.66943083996,10.111301713666668
5.760617474,-8.789987787066668,-1.982395457894,-1.5310235618933334,11.385265995933334
5.768643447,-10.776137701933333,-3.0857707018273333,-1.2378918050866667,12.7908765242
5.77666942,-12.623619683866666,-4.157533724694,-0.8242797969666669,14.3050268566
5.784695393,-14.2357477194,-5.178861124760667,-0.32145247448000003,15.909692958133332
5.792721366,-15.534336535866666,-6.101261074480667,0.2662079176533333,17.482160142999998
5.800747339,-16.5118312206,-6.927656252320667,0.89273277932,18.785174758933334
5.808773312,-17.175564639266668,-7.681795913854001,1.52617184332,19.799406269466665
5.816799285,-17.579565430266666,-8.383142549914,2.15796826692,20.551455388866668
5.824825258,-17.77870127406667,-9.036514805846668,2.76099228872,21.054992237333337
5.832820714,-17.76013342586667,-9.606136654906667,3.3513669809866666,21.264829639333335
5.840846687,-17.519115702466667,-9.997754414000001,3.90941786772,21.176958994666666
5.84887266,-17.0405574164,-10.158052380066668,4.401805178386667,20.782900426799998
5.856898634,-16.276643308466667,-10.043469046733332,4.7790110270533335,20.0283201696
5.864924607,-15.239877701,-9.6597319754,4.986032001186667,18.928668987800002
5.87295058,-13.976568603866667,-9.036657126106666,4.95735099714,17.524981687466667
5.880976553,-12.5866087596,-8.223478030626667,4.6997482538333335,15.938611423066668
5.889002526,-11.089418093599999,-7.266441225693333,4.253785538633333,14.2589701404
5.897028499,-9.517563120718668,-6.196886324426667,3.6854953209000003,12.649354669866666
5.905054472,-7.925439421251999,-5.021052876759999,3.0536535341666666,11.206804912600001
5.913080445,-6.377605469785334,-3.7876301844266664,2.379201420033333,9.959160277599999
5.921075901,-4.894360860052,-2.5079727569599997,1.6873892862333333,8.951832733799998
5.929101874,-3.4396080017186668,-1.1554832222266667,1.0868974605000001,8.222253054466666
5.937127847,-2.110831896385333,0.13795092110666676,0.45360864789999994,7.6909970264666665
5.94515382,-0.8879419009186668,1.3132236083733335,-0.1719870011666667,7.343720740466667
5.953179793,0.2630612372813334,2.376051608773333,-0.6653353771666668,7.226552341133333
5.961205767,1.3888782182813335,3.2885956685733335,-1.0225367467666666,7.293985285133334
5.96923174,2.4528337796146666,4.07876964424,-1.2799542984466667,7.492885526999999
5.977257713,3.377439721414667,4.753180337040001,-1.4329963138533333,7.752079624199999
5.985283686,4.197376060481334,5.292879812040001,-1.4959149112933334,8.0536471336
5.993309659,4.964329497014668,5.675393748413333,-1.5195252727066666,8.421558849
6.001335632,5.7614022890813334,5.916139880933333,-1.5265181095,8.8761496006
6.009361605,6.576181061748,6.037732569466667,-1.5075661212333331,9.436576905266666
6.01735706,7.385237788866666,6.104550329933334,-1.4159058044533335,10.042059044466667
6.025383033,8.0987613674,6.029776605066667,-1.2943289905666666,10.537094653733332
6.033409007,8.732790310599999,5.885539484066666,-1.1537342856266666,10.949313056066668
6.04143498,9.265387121533333,5.701316420266667,-0.9770053774066667,11.261190420533334
6.049460953,9.627138423866665,5.444945303666667,-0.8270122637266668,11.413124823866665
6.057486927,9.9101346652,5.202898566000001,-0.5786765049266668,11.493898827866667
6.0655129,10.178426297733333,4.986730353066666,-0.2948585937933333,11.568268701866666
6.073538873,10.344520378066667,4.781386280066666,-0.06803678972666669,11.5799168612
6.081564846,10.309358787466667,4.578686714133334,0.11054427327333331,11.442783251266667
6.089590819,10.184002526533332,4.377134927066666,0.27804577055333335,11.2383367642
6.097616792,10.102574984133332,4.219150988266667,0.44105171169333335,11.098697816866666
6.105642765,10.0373340288,4.144281419133334,0.5952836633333334,11.028460800599998
6.113668738,9.9483957926,4.157793426533333,0.7939774990733334,10.994624559
6.121664193,9.926723925200001,4.2500837644,1.09549218024,11.0588761738
6.129690166,9.778181712066667,4.382086722066666,1.3703170379066665,11.005418573133333
6.137716139,9.4150838854,4.483423487333334,1.5144263585266666,10.740010768
6.145742112,8.895047060999998,4.622787729866667,1.57620595692,10.360064643866668
6.153768086,8.3102392202,4.7553606192,1.610068281478,9.9259786982
6.161794059,7.701197179399999,4.837846533466666,1.6002631982046664,9.453700492
6.169820032,7.131882031800001,4.8841844240666665,1.5350345253779998,9.000820063666668
6.177846005,6.623666795066667,4.893895562466667,1.450445942084,8.578229838866667
6.185871978,6.1357236542,4.8474885781333334,1.3642216761893333,8.134524064333332
6.193897951,5.7105846724000004,4.761498180999999,1.2367587288293331,7.7241926144666655
6.201923924,5.4110397022,4.702115281399999,1.0424504478960002,7.4438892290666665
6.209949897,5.127338123466667,4.609412368133333,0.787626175096,7.172100973466668
6.217945353,4.702715174526667,4.3895083109333335,0.46427752569599995,6.789664155466666
6.225971326,4.076341947126667,3.9919131437333335,0.1140474676293333,6.469668288333334
6.233997299,3.26471468626,3.4418513615333333,-0.19917840570400003,6.335181437266667
6.242023272,2.1880672456599997,2.798390452066667,-0.5110202591506667,6.196764140933333
6.250049245,0.9916868211266668,2.106253624,-0.713481621008,6.238626886266667
6.258075219,-0.29260393753999997,1.3894556046,-0.6905359785413334,6.577180692733333
6.266101192,-1.5723917004733332,0.6253367424666666,-0.48302127922133337,7.199406697533333
6.274127165,-3.0180704116733335,-0.28846604020000005,-0.18956766925266672,8.142754783866668
6.282153138,-4.597804514873333,-1.3784169834666666,0.2281235456006666,9.374350994066667
6.290179111,-6.27281646794,-2.5717123348666666,0.7860610961473333,10.777993039733333
6.298205084,-7.983162975873333,-3.7612474122666666,1.501839883774667,12.269508724533333
6.306231057,-9.725085481673334,-4.888863547466666,2.367540219802667,13.8318491224
6.31425703,-11.487212913206665,-6.010879564266667,3.3935640410293333,15.4510672036
6.322283003,-13.195843093473334,-7.137309646266668,4.524639136829333,17.064823694266668
6.330278459,-14.740037473873334,-8.178715435133332,5.656251739762667,18.634681536933332
6.338304432,-16.001604017600002,-9.024523639466668,6.747420906496001,20.149548016933334
6.346330405,-16.89503574473333,-9.551212485400002,7.703758628896,21.346019038733335
6.354356379,-17.46168918733333,-9.767191823133333,8.467620253296,22.114447442333336
6.362382352,-17.78750318033333,-9.759932168133332,9.016714358076,22.53017249666667
6.370408325,-17.851648204666667,-9.576029793266665,9.353905502733333,22.600769765333336
6.378434298,-17.59313437266667,-9.256589523806667,9.433143551933334,22.299227217
6.386460271,-17.062169457733333,-8.768339077473334,9.300463596733334,21.681492032
6.394486244,-16.164437740066667,-7.999934307606666,9.00396985186,20.682825749733333
6.402512217,-14.970720164666668,-6.942793734473333,8.511033018193332,19.413259582666665
6.41053819,-13.567249489193333,-5.678492561873333,7.798805387593333,18.051574010333336
6.418564163,-12.010116323326667,-4.31728911394,6.829658722926666,16.721339331266666
6.426590136,-10.30922791206,-2.942682409273333,5.64564201866,15.4314808824
6.434616109,-8.500908025260001,-1.5510492164066667,4.283505940593333,14.1532510844
6.442642082,-6.632993285126667,-0.15027330727333338,2.8271106963266663,12.9549361244
6.450637538,-4.775082365993333,1.2025201953266667,1.407365378193333,11.9103026624
6.458663511,-2.9676079115933334,2.4410061995266665,0.09237107465999989,11.0533284844
6.466689484,-1.26159772886,3.49610629086,-1.052698302206667,10.4567470524
6.474715457,0.3238448779400001,4.368241739326666,-2.0123592773400003,10.083624089066666
6.482741431,1.7684107782733336,5.07632199926,-2.7724787790733334,9.885361575733333
6.490767404,3.062672456073334,5.613503996593334,-3.3232645431400005,9.820103079066666
6.498793377,4.236975638006666,6.0143490474,-3.6708661476066666,9.912284436066667
6.50681935,5.3045421917399995,6.314310455333333,-3.874619460006667,10.173953129066668
6.514845323,6.229947249006667,6.512433179266667,-3.9589270750000005,10.550196098666666
6.522840778,7.0128993668733335,6.616944980666667,-3.9510613997333337,10.9344991064
6.530866751,7.6647007940666665,6.602760728266667,-3.868453693333334,11.221710738066665
6.538892724,8.179479439933333,6.486455694933334,-3.6961789924666673,11.379441174466667
6.546918697,8.567469342466666,6.326450061866667,-3.4619955856666667,11.442687543333333
6.554944671,8.795172532333334,6.165786488933334,-3.2036192893333335,11.394872423066666
6.562970644,9.001832834866667,5.993332958266667,-2.8758585770666665,11.334751293066667
6.570996617,9.164768855066667,5.818665854200001,-2.5256042401000003,11.2605319944
6.57902259,9.236459160133334,5.6671554566,-2.176552013546667,11.143068267733334
6.587048563,9.208043289466668,5.5372567495333325,-1.8328287641066667,10.969346559733333
6.595074536,9.126706568733335,5.425196584133333,-1.4975832183933335,10.777995108466666
6.603100509,9.037319660533335,5.347485669533333,-1.1819169879,10.613031908333333
6.611095965,8.956458982200001,5.321948528333333,-0.9102533539400002,10.5014460638
6.619121938,8.858821360666667,5.320327472733334,-0.7086141824800001,10.407302035466667
6.627147911,8.726945718533333,5.314971923866667,-0.5652420600466669,10.289426558733334
6.635173884,8.5803060218,5.295489565533333,-0.4591551621666668,10.153046335466668
6.643199857,8.426186466666667,5.270058759066667,-0.3718650390440002,10.007135822466667
6.651225831,8.272947725133333,5.2551368395999996,-0.2897555331373335,9.866390691266668
6.659251804,8.123854319733333,5.242065715799999,-0.23306907021066678,9.730777853200001
6.667277777,7.964274343333333,5.2204648018,-0.18616380296400012,9.581297512866666
6.67530375,7.856720384400001,5.18581508,-0.12882161537733344,9.465906822866666
6.683329723,7.675801881533333,5.1533816338,-0.11127285557733345,9.293259817266666
6.691355696,7.4744685174,5.1242064476,-0.11743282081066678,9.1044105434
6.699381669,7.291014131,5.105323759733333,-0.13647942941733343,8.938065515266667
6.707377125,7.1304507256,5.094104035666666,-0.18933185339066677,8.800661055866668
6.715403098,6.973473676066667,5.073307895666667,-0.27939650617066675,8.66371511
6.723429071,6.751831626933334,4.9796500206,-0.4096610665306668,8.437361214866666
6.731455044,6.409063371066667,4.744046274866666,-0.5653806169573333,8.042739329333333
6.739481017,5.922010771472,4.349588394213333,-0.6905348221506669,7.4995276513333335
6.747506991,5.342873319005333,3.8385029475466665,-0.7322591275006668,7.0492899236
6.755532964,4.715622011805333,3.291021601413333,-0.665462459114,6.689260218
6.763558937,4.046849632272,2.7666178068133336,-0.50829943017,6.410118772666666
6.77158491,3.279362742138667,2.2587070783466667,-0.2883381833433335,6.2536112976
6.779610883,2.4207816760053333,1.7449882190133335,-0.04439213773666679,6.192206790466667
6.787636856,1.4860331535386668,1.2160508474800003,0.1887726773499999,6.209257711133334
6.795662829,0.44840221407200004,0.65916884748,0.41370376642999995,6.323755469133333
6.803688802,-0.6736773810613332,0.06080201474666662,0.6167637496966666,6.508468040733334
6.811714775,-1.867031160928,-0.59050947812,0.8119156191633333,6.743459033933333
6.819740748,-3.0929485319946664,-1.3579607326533334,1.0390383352833332,7.071624354733333
6.827766721,-4.305102029994667,-2.2598614373199997,1.3495517044833332,7.517292623466667
6.835792694,-5.486303487861333,-3.26198991152,1.7390285124166667,8.087968465933335
6.843788149,-6.580320039528,-4.284897995186666,2.1939648180833333,8.8407273872
6.851814123,-7.544511539794667,-5.2532448768533335,2.675991665283333,9.8409446466
6.859840096,-8.341080473933333,-6.1344820658,3.13249508835,11.030387937600002
6.867866069,-9.003565469333333,-6.923701191066668,3.520477604866666,12.120396910066665
6.875892042,-9.576602426333332,-7.659253597066667,3.8129901885999997,13.097048416933335
6.883918015,-10.067958258933334,-8.3716634112,4.026153977666667,13.969142429266666
6.891943988,-10.4393954586,-9.027685133466667,4.1859406470666665,14.685099773533333
6.899969961,-10.738317552133333,-9.598580964266667,4.327812401399999,15.278764280066667
6.907995934,-10.965729203733334,-10.052425893,4.480217536266666,15.746108435733333
6.916021907,-11.095570753999999,-10.383903535,4.634739955266666,16.060493418
6.92404788,-11.144338225333334,-10.578734334133335,4.798640346466667,16.235358411333333
6.932043336,-11.129188663999999,-10.628089682133334,4.932819732,16.27603351466667
6.940069309,-11.041849199333335,-10.508735942733333,4.998859453133334,16.161223174666667
6.948095283,-10.900505447133332,-10.230602804733333,4.984582948666667,15.900572420000001
6.956121256,-10.705226898066664,-9.780755551333334,4.868830426533333,15.474199004733334
6.964147229,-10.442743110866667,-9.185678259133335,4.669603681533333,14.8886391902
6.972173202,-10.112721538866667,-8.462764866999999,4.412161215066666,14.164949489
6.980199175,-9.738961855866668,-7.618438784166667,4.1131863196,13.333044884866666
6.988225148,-9.341890812333332,-6.679167683633334,3.7827567616133333,12.444748301
6.996251121,-8.927673181066666,-5.685091686233333,3.43692483096,11.550294739266665
7.004277094,-8.478148651133333,-4.645914745433333,3.0632041254693334,10.675008344533333
7.012303067,-7.961603737133333,-3.5966014226333334,2.6606823801360004,9.842942049
7.02032904,-7.323461469466666,-2.5467139879666667,2.250284691609333,9.066403861733333
7.028355013,-6.564629841293334,-1.5229963302333334,1.8454255620093332,8.404873641933333
7.036380986,-5.696433798826666,-0.5290940285,1.4594635167893333,7.879467326933334
7.044376443,-4.75311654416,0.4156874656333333,1.0918269633893334,7.483883925333333
7.052402416,-3.7401555062266665,1.3106444676333333,0.7522438525893332,7.230025979866667
7.060428389,-2.6855204582266667,2.1566342035666666,0.4301978905893332,7.094526758866666
7.068454362,-1.6006415684933335,2.9675765991,0.0972079912559999,7.0499921235333325
7.076480335,-0.50808137256,3.7063927332333337,-0.22897300727733344,7.1144206308
7.084506308,0.5839739481733334,4.374431101433333,-0.5358990352106668,7.304192441333333
7.092532281,1.6774477959066667,4.986234156233333,-0.8105183045440002,7.6057383705333335
7.100558254,2.763148307573333,5.5429386774000005,-1.0565512101440002,8.019833679333335
7.108584227,3.8170173327066665,6.026920350333333,-1.2812852582240002,8.525550361866667
7.1166102,4.82624870944,6.4369657198,-1.494517588704,9.074302832933334
7.124636173,5.758861033506666,6.742587057733333,-1.6916537564133334,9.623833814333333
7.132631629,6.581291707706667,6.943178971600001,-1.8659177820800001,10.1361895012
7.140657602,7.266579183306667,7.051305484733333,-2.0202148001533335,10.585415068466666
7.148683576,7.804785951333334,7.0795355796,-2.15413578762,10.937089152266667
7.156709549,8.207491271066667,7.045210647533334,-2.2644836586,11.178248819266665
7.164735522,8.503873157866668,6.974223486533333,-2.3483772756000003,11.330529367533332
7.172761495,8.692380492266667,6.8670404752000005,-2.3913338583333332,11.385290981066667
7.180787468,8.786740144466668,6.7422501246,-2.3929053705333336,11.362390203466667
7.188813441,8.8004439358,6.619513257333334,-2.3540707430666665,11.282604415
7.196839414,8.741059875866666,6.5091566722000005,-2.2689641993333334,11.154656948533333
7.204865387,8.600844701533333,6.408859602666666,-2.140325154946667,10.970101716333334
7.21289136,8.388770930333333,6.3078393619333335,-1.9738529623533334,10.729214970400001
7.220917333,8.109301694866668,6.2008681934,-1.7728093803600002,10.433665566333334
7.228943306,7.785639000333333,6.0865782420666665,-1.5369258106133334,10.100116329133334
7.236938761,7.443619219733334,5.9701916059333335,-1.2704482098800003,9.751053632866666
7.244964735,7.1133825302,5.872852865866666,-0.9799626529466667,9.418874060133334
7.252990708,6.828959941866667,5.807793172199999,-0.6893884758800001,9.136503678533334
7.261016681,6.579705937666666,5.7606451352666665,-0.41839575174666677,8.889694215866665
7.269042654,6.353555552133333,5.713528283466667,-0.2131992211066668,8.658843351466667
7.277068627,6.165790176333333,5.649558862066667,-0.12602157097333347,8.457743615133333
7.2850946,6.0409861246,5.540405718533334,-0.26867770657333345,8.3575207412
7.293120573,5.831963252933333,5.3686885198,-0.4691280077066668,8.198295005066665
7.301146546,5.521686013466667,5.144126415266667,-0.5717076490400002,7.880294295933334
7.309172519,5.2048905372,4.862338797266667,-0.6602822413066668,7.512036319
7.317198492,4.8784144719333336,4.4943139394,-0.7567790577733334,7.103138988333334
7.325224465,4.506950950619999,4.036356353733334,-0.8461545198933335,6.660409558733334
7.333250438,4.028536860153333,3.4792010306666663,-0.9353050559533334,6.294344062266668
7.341276411,3.418441677086667,2.8373534838,-1.03163679538,6.085344675533334
7.349302384,2.64342794422,2.0993915557333334,-1.1460734377066666,6.0867782272
7.357328357,1.6856348992200003,1.2461809793999998,-1.28787661888,6.3295979128
7.36535433,0.5767766000866668,0.2802101135333333,-1.430029579966667,6.772443304866667
7.373380303,-0.6504856104466666,-0.7574548085333334,-1.5486053039133334,7.337208677133333
7.381406276,-1.9818922355133333,-1.8318674720666668,-1.6183165917366666,8.019958135800001
7.38943225,-3.3723333035133334,-2.918403021533334,-1.6018120685766668,8.801743230200001
7.397458223,-4.849130279913334,-4.0225738206,-1.4508438904633334,9.674287938533332
7.405484196,-6.439553832313334,-5.1176227566,-1.0394469180633332,10.551336947133333
7.41351017,-7.991320164313334,-6.181042734666666,-0.5218803643300001,11.592906547199998
7.421536143,-9.468803595713332,-7.217927265066667,-0.05060156973000011,12.8843138716
7.429562116,-10.954271474713334,-8.240172608333333,0.4693385681366665,14.302135830333333
7.437588089,-12.418331876513331,-9.2073827422,1.0412367900699997,15.811252079466666
7.445614062,-13.766328842799998,-10.057952212733333,1.6243121862699998,17.328551195266666
7.453640035,-14.890412361533333,-10.761643186533332,2.183242233603333,18.68713290966667
7.461666008,-15.756915854333332,-11.291557915133332,2.6910972754366664,19.76179357046667
7.469691981,-16.325789323600002,-11.609244281866667,3.1441355228833334,20.47160554866667
7.477717954,-16.55894947,-11.662184428,3.5269130190566664,20.741795602666667
7.485743927,-16.501772244666668,-11.457285911666666,3.8030584614099996,20.60944316266667
7.4937699,-16.223185603066668,-11.044050215533334,3.95576765149,20.166198082066668
7.501795873,-15.7455862048,-10.466453360600001,3.9827886204799996,19.474296945066666
7.509821846,-15.101242002133334,-9.752950476379999,3.8961985569066666,18.59874705346667
7.517847819,-14.2822226848,-8.910986009193334,3.7040590743933333,17.565588953866666
7.525873792,-13.27088670766667,-7.936740588326667,3.39238970086,16.428135384333334
7.533899765,-12.0792668664,-6.842167312793334,2.9672944764599993,15.2444431068
7.541925738,-10.73373533928,-5.651069385726667,2.4631036500599994,14.037875879866666
7.549951711,-9.270626990413332,-4.37533540646,1.881347852993333,12.816315277
7.557977684,-7.73575916348,-3.0346386265933334,1.2531268657266665,11.599195461133332
7.566003657,-6.2004734201466665,-1.6942835801933331,0.6166541477933332,10.455490875266666
7.57402963,-4.693885819680001,-0.36268405866000003,0.0336268644599998,9.462650910399999
7.582055603,-3.2170076218799997,0.92187363334,-0.45183070292666677,8.681159879933334
7.590081577,-1.7819158400800001,2.1234050114733334,-0.8236479202200001,8.136144361266666
7.59810755,-0.41245169668000004,3.2005708376066666,-1.0621042330200003,7.8683315266
7.606133523,0.8918399651866665,4.144284343673333,-1.15693963362,7.868175577933333
7.614159496,2.1235867023866666,4.94656988774,-1.11710671582,8.083032337866666
7.622185469,3.283581209453333,5.5992002486066665,-0.95879602232,8.440523015533334
7.630211442,4.3521167601199995,6.10059782652,-0.70397054948,8.888161717133332
7.638237415,5.325282971453333,6.470133399866667,-0.3833484390800002,9.380992510066667
7.646263388,6.1831103803200005,6.7064136186,-0.012482124546666817,9.875322129599999
7.654289361,6.936071380386666,6.831431801999999,0.35705351238666644,10.322896971133334
7.662315334,7.588508844600001,6.876817385266666,0.6852013051866664,10.7188880574
7.670341307,8.159639883066667,6.880698394666667,0.9581038375933331,11.0702307216
7.67836728,8.6657605968,6.865066305733333,1.156920967495333,11.387974715466667
7.686393253,9.109813880799999,6.845235443066667,1.2677010715153332,11.676738980666666
7.694419226,9.4488828658,6.810187816600001,1.2953964253153332,11.8941683882
7.702445199,9.667858473333332,6.754161739333333,1.259066595635333,12.015337869333333
7.710471172,9.780233732733334,6.684770139066667,1.168160267675333,12.049642271333335
7.718497145,9.771141751533333,6.608188152333335,1.0419471422753332,11.986536109333334
7.726523118,9.638726488666666,6.5309385618,0.8918775399419998,11.828444353333333
7.734549091,9.421250057133333,6.4631297748,0.7355125864453332,11.610962975733333
7.742575064,9.1496202466,6.4194496156,0.5824759562986664,11.365251155333334
7.750601037,8.862801805600002,6.411167431,0.44117445946533324,11.12668722
7.758627011,8.563780339133332,6.438159434133334,0.3304688930653332,10.901666459133333
7.766652984,8.241421063533334,6.493499692466667,0.26631645366533324,10.682424868533333
7.774678957,7.895656744133333,6.566707611266667,0.2612765550653332,10.466080499399999
7.78270493,7.5371225672,6.6476357144,0.3095570961319999,10.251610897533334
7.790730903,7.165442275866667,6.717264620666667,0.4111749926586666,10.025052138733335
7.798756876,6.7820814765333335,6.7594042462,0.5539708534233332,9.7745093978
7.806782849,6.401263236999999,6.766706244333333,0.7355735937366664,9.504673665066667
7.814808822,6.046985435466667,6.739605077266666,0.9233556906033332,9.233222466866666
7.822834795,5.726602554333334,6.678321711400001,1.0654503583366666,8.962228644466668
7.830860768,5.388076082933334,6.560282707400001,1.1624105810566665,8.6420845156
7.838886741,5.007973130600001,6.340016810266666,1.22146034633,8.226842370133333
7.846912714,4.596202627873335,6.012156232333334,1.2464435537126666,7.7178226314666665
7.854938687,4.1659127871659996,5.572432804239999,1.2365052381626667,7.116499931513333
7.86296466,3.6955033302326665,5.06117102316,1.1872049887426666,6.5789411839800005
7.870990633,3.1452627500326664,4.51305974336,1.0882790962359998,6.156931956646667
7.879016606,2.496285438566,3.941379928693333,0.9087927738359999,5.8694262319799995
7.887042579,1.7577431042993334,3.3385176977599995,0.6409566561026665,5.72483628258
7.895068552,0.9235068003660002,2.6787239711599997,0.2823235193693332,5.73157092258
7.903094525,0.038580703765999994,1.9445043564933333,-0.15388607976400012,5.8477224484466666
7.911120498,-0.9158457119673333,1.11429719936,-0.6577095190306667,6.105250947246666
7.919146471,-1.9684391973006667,0.1623957316933333,-1.1622370560306667,6.532746558846667
7.927172445,-3.1704189617673335,-0.9541798908400001,-1.5799402872306667,7.17606133558
7.935198418,-4.514001941700667,-2.23746582684,-1.8273358264973332,8.04387336178
7.943224391,-5.9283581099006675,-3.60140012104,-1.874884466264,9.053413283513333
7.951250364,-7.318319289033999,-4.943364206906667,-1.7731525221973332,10.167865968380001
7.959276337,-8.595978355567333,-6.15925989144,-1.5442891676706667,11.38144761718
7.96730231,-9.732470385174,-7.201522032173333,-1.2055341799866668,12.65628816718
7.975328283,-10.754342937733332,-8.122619438213333,-0.8088219880733335,14.015170866066665
7.983354256,-11.656858634933334,-8.984936205733334,-0.4201510071733334,15.307520630666666
7.991410746,-12.403393872399999,-9.799362405466667,-0.06365983090000006,16.434770292
7.999406202,-12.997428162466667,-10.546368408466666,0.3005083838999999,17.373576054199997
8.007432175,-13.437336412599999,-11.1958349868,0.6852690974333332,18.1035466222
8.015458148,-13.714557901266666,-11.701056289933335,1.0864850481,18.588971919333332
8.023484122,-13.865299287733334,-12.035885747533333,1.519744837233333,18.854405885333332
8.031510095,-13.852351633000001,-12.158456548333334,1.9860052545666667,18.847730774666665
8.039536068,-13.628560987533335,-12.057224019666668,2.4276210506333333,18.54665921533333
8.047562041,-13.158984851066666,-11.690241368933332,2.75422298904,17.91868914453333
8.055588014,-12.438008720800001,-11.064415073466668,2.8888862768466668,16.958091040466666
8.063613987,-11.557448131866666,-10.2720496498,2.833106330993333,15.775481771666668
8.07163996,-10.595298670733333,-9.384414196333333,2.6382957021199998,14.4722823838
8.079665933,-9.6126774778,-8.44838358594,2.3204971988533334,13.135893166599999
8.087691906,-8.6560579928,-7.51301460316,1.89304070872,11.854101274466668
8.095717879,-7.721303366533333,-6.514604250826666,1.41181108552,10.6281857166
8.103743853,-6.776531409386667,-5.415058835426667,0.9477465828533334,9.478192842
8.111769826,-5.831910100933333,-4.236178207360001,0.5403612494533333,8.4646009344
8.119795799,-4.8781900084,-3.010578028426667,0.19616688485333325,7.598519148533334
8.127821772,-3.9203141208666663,-1.7540768940266669,-0.08506362042666676,6.906024146799999
8.135847745,-2.9645915348666665,-0.49760386156000025,-0.30141274932000006,6.4069480256
8.143904234,-2.0210060595333332,0.7453600565066664,-0.4706454396600001,6.113897120199999
8.151930207,-1.1079069613333332,1.934397888173333,-0.5959945242066668,6.030909288866667
8.15995618,-0.23559870713333333,3.0509721120399997,-0.6787227313213334,6.1323874061999994
8.167982153,0.6001618544666667,4.071063677306666,-0.7190956513600001,6.380954573666667
8.176008127,1.3639788151333334,4.979607232306667,-0.723446285776,6.7463335224
8.184003583,2.0688815594,5.773245111973333,-0.7113148491093334,7.194191559199999
8.192029556,2.7440427303333337,6.436754894173333,-0.691565215636,7.699322869733334
8.200055529,3.3933606942666668,6.977047983713334,-0.6639309803893334,8.246945068933334
8.208081502,4.020895878466667,7.4186155317999996,-0.6261034171360002,8.794504911733334
8.216107475,4.621677541733334,7.772852325333333,-0.5800684889493335,9.317149354266666
8.224133448,5.17298417092,8.0333632786,-0.5291856964960001,9.789267053533333
8.232159421,5.662381346999999,8.200845591133334,-0.47966118655600015,10.181073017133334
8.240185394,6.097929747866667,8.275958887666667,-0.4457810123760001,10.481445519
8.248211367,6.480610513666667,8.2536776542,-0.43636167446933344,10.679890753399999
8.25623734,6.815841531733333,8.146897284066666,-0.43823097944266676,10.786550963266668
8.264263313,7.098305161733333,7.963384628133334,-0.45338950156933344,10.805671698
8.272289287,7.329543940133334,7.7242669422,-0.48266266981600014,10.757820502666668
8.28031526,7.493826166733333,7.4607268332,-0.5149065752813334,10.658484318
8.288341233,7.592631053866667,7.1945146878666675,-0.5360785861826668,10.522040915800002
8.296367206,7.641419951066667,6.951429971066667,-0.5344573179893335,10.373729534599999
8.304393179,7.650087324733334,6.741602071133333,-0.5000213782026668,10.226303417133332
8.312419152,7.6123913128666665,6.572462018333334,-0.43145501216933346,10.079615943266667
8.320445125,7.535439300466667,6.422116947199999,-0.3363086025026668,9.920949918733333
8.328471098,7.432534058866667,6.278571001733332,-0.22957977852266678,9.749554423266666
8.336497071,7.313905811266666,6.128703498866667,-0.12488294442933347,9.562826529599999
8.344492527,7.1990732828,5.974808851866667,-0.04100007216266678,9.376320619533335
8.3525185,7.0730350176000005,5.822862720466667,0.02944849331733322,9.182059971533333
8.360544473,6.8907051404,5.6770888964,0.07889008223666655,8.947473081466665
8.368570447,6.6339814186,5.515686766266667,0.08787702420999989,8.649427988866668
8.37659642,6.2790082614,5.301159048066666,0.04396419620999989,8.258243861533334
8.384622393,5.799198436793334,4.975872659666666,-0.07548176352333344,7.774512705533334
8.392648366,5.279931767853332,4.516785923593333,-0.2714566539300001,7.3272943066666665
8.400674339,4.867235342719999,3.9476437727266664,-0.5673281918833335,7.0281734155999995
8.408700312,4.64142777132,3.32947026886,-0.9748881112166666,6.9221114334000005
8.416726285,4.570256233253334,2.7248212972599997,-1.4527211458006668,6.9522540758
8.424752258,4.54660294852,2.1738513786599998,-1.9479682635006668,7.0095994606
8.432778231,4.425051403053333,1.69399046886,-2.400389535334,6.959071609133333
8.440804204,4.04418462118,1.2117610453266667,-2.720549308380667,6.696907932
8.448830177,3.3665800094466665,0.68652876206,-2.8577383866806665,6.5025814609333334
8.45685615,2.427928129846667,0.11854319565999992,-2.7986682048273335,6.5977532562
8.464851605,1.2656293553133333,-0.5144631227400001,-2.5524732461473336,6.9576360569333335
8.472877579,-0.013094107353333348,-1.21914696694,-2.1973878136339997,7.501395932266666
8.480903552,-1.31135263422,-1.9971316178733332,-1.764304741333333,8.211709940333332
8.488929525,-2.5585256890866668,-2.785792493873333,-1.289823564,9.030074130933334
8.496955498,-3.719882773953333,-3.535467211473333,-0.8111099244000001,9.941316567600001
8.504981471,-4.765634663346666,-4.2270860672733335,-0.33985311199999996,10.9472025536
8.513007444,-5.778262773340001,-4.858573277866666,0.1344420432,11.935562463133333
8.521033417,-6.8725164084733334,-5.451219718000001,0.6620470205333333,12.8039386842
8.52905939,-8.104586600273333,-6.029357338133334,1.2841469604666667,13.497172476600001
8.537085363,-9.436460716340001,-6.6322814942,2.0054096697333335,14.075529848733336
8.545111336,-10.795958167806669,-7.291370265,2.799869426,14.672230518066666
8.553137309,-12.029721163206666,-8.0070220634,3.598293447466667,15.411826904066666
8.561163282,-12.950785317800001,-8.670942688666667,4.300244824066667,16.3689884564
8.569189256,-13.522378221,-9.196831767466668,4.866555007266667,17.23568885026667
8.577215229,-13.775405374,-9.543665537,5.281551233866667,17.75293409266667
8.585241202,-13.772988890666666,-9.695224730933335,5.534219455666666,17.923211198666664
8.593267175,-13.596502302666666,-9.682712619266665,5.647924041733333,17.827641329333336
8.601293148,-13.263187470866665,-9.5316445358,5.6238439878,17.488545972
8.609319121,-12.823808732666667,-9.299074586933333,5.505463091533333,16.986453118
8.617345094,-12.290453051666667,-8.990890471799998,5.318601195,16.3444980356
8.625371067,-11.679791863066667,-8.564477507933333,5.1294366757333325,15.582566176733334
8.63339704,-11.006669552666667,-7.965693506266667,4.95152733728,14.697683724200001
8.641423014,-10.302763302933332,-7.181315199946667,4.760985235406666,13.732304845533333
8.649448987,-9.576151879333334,-6.250080554280001,4.518644495866666,12.754006369133332
8.65747496,-8.818258666866665,-5.205825933546667,4.1741681696,11.814982380933333
8.665500933,-7.965924803593334,-4.0414181078133335,3.701001687933333,10.9379474596
8.673526906,-7.0374422392866665,-2.7779821080800002,3.1142136058000003,10.159898518533334
8.681552879,-6.0661991118200005,-1.4590179762133337,2.441083777066666,9.502276835
8.689578852,-5.05866934442,-0.15216258374666686,1.6909910639999997,8.971789409666666
8.697604825,-4.032575305153333,1.0915673891199995,0.8882968069333331,8.590257333666667
8.70560028,-2.99504621802,2.2510443684533334,0.08484843186666649,8.334966123666666
8.713626253,-1.9474964618866666,3.33591890312,-0.6556386350666669,8.198734337666666
8.721652226,-0.9342294852199998,4.336318556519999,-1.2933686613333333,8.182135794999999
8.729678199,0.030361509313333337,5.2379344304533335,-1.8249468206666668,8.261982745000001
8.737704173,0.9385356744466667,6.0173384348533325,-2.241203025866667,8.4487213954
8.745730146,1.8030356248466666,6.67433150612,-2.567734491733334,8.7251866956
8.753756119,2.630123790113333,7.203071022053333,-2.824824412546667,9.095130830133334
8.761782092,3.4306956767799996,7.600504430133332,-3.01144502154,9.523523593466667
8.769808065,4.185583861646666,7.878189627333333,-3.1185594478666667,9.957132681866666
8.777834038,4.88443446158,8.0488264402,-3.144268361666667,10.345578638733333
8.785860011,5.49295430184,8.098954582266666,-3.092134722,10.640073844733333
8.793885984,6.026275046666666,8.040704886133334,-2.977929862266667,10.824343204466667
8.801911957,6.491409571999999,7.893369770066667,-2.8168244043333335,10.911174525999998
8.80993793,6.893037366933333,7.687005551666666,-2.606120709506667,10.925123126666668
8.817963903,7.226782639866667,7.441556612666667,-2.3497534850666666,10.875561903333333
8.825989876,7.497130839066667,7.181500435133333,-2.06638573204,10.786739022
8.834046367,7.6975688298666665,6.918329334399999,-1.7730286776400002,10.670293570666667
8.84207234,7.8430003483999995,6.6692800519999995,-1.483776332906667,10.547570552
8.850098313,7.9449264526666665,6.460749276333333,-1.193617790906667,10.439008287133333
8.858124286,8.0036151568,6.3030753134,-0.8854657908400001,10.346131324
8.866150259,8.014364465066667,6.192733891666666,-0.5687813779066669,10.2601460406
8.874176232,7.966981697066667,6.103761513866667,-0.2588903129733336,10.150080792933332
8.882171688,7.861918735533334,6.0328531264,0.02001936235999978,10.011426109066667
8.890228178,7.7258135160000005,5.984478251066666,0.24963290495999976,9.865981115799999
8.898223634,7.5809148470666665,5.958671633333333,0.4229866723333331,9.729867984
8.906280124,7.443467330933333,5.958261267266666,0.5310560367833331,9.6167507136
8.914275581,7.314891910533333,5.9804573376,0.5760359666899997,9.528133302866669
8.922301554,7.1956702232000005,6.0171765008666664,0.5595656615566664,9.462722413800002
8.930327527,7.068220551733333,6.0482329368,0.4739696365966664,9.397646275533333
8.938384016,6.918360423999999,6.039691511733333,0.3027648133566664,9.306926377999998
8.946409989,6.712051041866667,5.951982053066667,0.05816854659666637,9.1431857652
8.954435962,6.402300230600001,5.749399661999999,-0.24410234267000028,8.861778931
8.962461935,5.9731539090000005,5.424101670599999,-0.566741394736667,8.471517511133333
8.970487908,5.42307618452,4.98207155864,-0.8723102328700002,8.035818864733333
8.978513881,4.771604378986667,4.46121495564,-1.1406813142033336,7.6453018380666675
8.986539855,4.057545789053333,3.9144852002399997,-1.3673181848700002,7.3169568361333335
8.994565828,3.3099576949866663,3.352408472706666,-1.5329281962833337,7.070521604733333
9.002591801,2.4954579035199997,2.729585615773333,-1.6268350250700003,6.970332142
9.010617774,1.5793881097866667,1.9995258648399996,-1.6591194199833335,7.043458839533333
9.018643747,0.5084098176533334,1.1437472978399996,-1.6621206290833337,7.310968388666667
9.02666972,-0.7384582844133334,0.15885105123999957,-1.6384304632533335,7.764444083066667
9.034695693,-2.1127890278133337,-0.925102266026667,-1.506408988426667,8.3357809018
9.042721666,-3.6134528486133335,-2.120343463093334,-1.339983951026667,9.032458661533333
9.050747639,-5.177324804146667,-3.4203622184266673,-1.0937782238266671,9.8410822438
9.058773612,-6.742332903946666,-4.739386431626667,-0.7103695025600003,10.725577151333335
9.066769068,-8.260736910813334,-5.973305289426667,-0.18738782709333363,11.697031756133333
9.074795041,-9.676036135813332,-7.072093932293334,0.4312431543066664,12.797757568333335
9.082821015,-10.917786249213332,-8.031872431826667,1.082202900373333,13.989379769533334
9.090846988,-11.947478581066667,-8.873938624466666,1.703864499906666,15.1894447708
9.098872961,-12.767881107800001,-9.6400086726,2.266050375506666,16.3039230026
9.106898934,-13.432619063799999,-10.364437517066667,2.7640867044399995,17.3172860586
9.114924907,-13.971567250066668,-11.003353246733333,3.166613416853333,18.190090829
9.12295088,-14.360504087466666,-11.472675451399999,3.466162683573333,18.830753364933337
9.130976853,-14.574818230000002,-11.735235532866666,3.684180555753333,19.195129755333333
9.139002826,-14.581303406,-11.758909989133334,3.8617546379466665,19.242093610666664
9.146998282,-14.365679105066668,-11.538700740266666,4.0140471776,18.963253211333335
9.155024255,-13.978498776399999,-11.117425823666668,4.079745578733333,18.4315902786
9.163050228,-13.394438393666666,-10.494502258599999,4.139437309866667,17.635535051266668
9.171076201,-12.631094741866665,-9.674281788446667,4.1294485409999995,16.585279597533333
9.179102175,-11.724485715333334,-8.73699248686,4.010818298666666,15.356260170533334
9.187128148,-10.697430483666666,-7.744297250393333,3.764882151306666,14.030847113466667
9.195154121,-9.538404814393335,-6.699955638526666,3.408175118813333,12.6913978832
9.203180094,-8.30680252686,-5.591376940793334,2.985550618219999,11.470687513400001
9.211206067,-7.0432536123933325,-4.402409426726667,2.55008442006,10.416308471666666
9.21923204,-5.76314051946,-3.1260782879933333,2.108674728873333,9.542663667400001
9.227258013,-4.482236130726666,-1.801854006726667,1.664286446573333,8.816060977866666
9.235283986,-3.1956409451266667,-0.4882088344600002,1.2429650545066664,8.2594910052
9.243309959,-1.90597174946,0.7524479865399998,0.859813411973333,7.8783298192
9.251335932,-0.6330278079933331,1.9076220512066664,0.5233548402399998,7.653930664533333
9.259361905,0.5877149900733334,2.9479715028733335,0.22768633363999974,7.555683675866666
9.267387878,1.7293181420733332,3.849991321473333,-0.02109245456000027,7.559492091200001
9.275413851,2.7936641376066667,4.621225039073333,-0.23849665322666697,7.652647877933333
9.283439824,3.7593399366733338,5.268380069606667,-0.4336368004600003,7.835198040600001
9.291465797,4.60978654234,5.800022729119999,-0.5981008450600004,8.136463605666668
9.29949177,5.350120925940001,6.226641019066666,-0.7448256969933336,8.545192474666667
9.307517743,5.9965784073399995,6.549672603466666,-0.869283501366667,9.023102398733334
9.315543716,6.5280338288,6.7796891052,-0.9464742502066669,9.501325726266666
9.323569689,6.9390702248,6.934340540466667,-0.9762865027266671,9.884161957733333
9.331595662,7.230474217799999,7.0223637262,-0.9749269843533336,10.1467320524
9.339621635,7.400253645599999,7.042950566533333,-0.9415256520600004,10.278535662466668
9.347617091,7.480763244599999,7.0135912894666665,-0.8761509339500003,10.311781499799999
9.355643064,7.483330249800001,6.939980347933332,-0.7804170052566669,10.258857143800002
9.363669037,7.4186200778,6.8355948766,-0.6681056817433337,10.1369234534
9.37169501,7.3061871210666665,6.7160746256,-0.5438471198366669,9.971950774133335
9.379720984,7.189822832733333,6.598536078133334,-0.3916965365700003,9.808479997066666
9.387746957,7.085140768666666,6.495285733533333,-0.2098732829700003,9.6688495554
9.39577293,6.975465869933333,6.400708770733333,-0.008153990903333656,9.536598485866667
9.403798903,6.841630935666667,6.315263303133333,0.202357637863333,9.399234038733333
9.411824876,6.677202479,6.241061719266666,0.4112965543966663,9.249722518933334
9.419850849,6.489847373933333,6.190208721199999,0.6073581655966663,9.0962574824
9.427876822,6.300891367533334,6.1579140028,0.7763224005966662,8.944564663933333
9.435902795,6.1296282449333335,6.125102329266666,0.9243294993966663,8.798931923733333
9.443928768,5.998474947533333,6.082328573866666,1.0509261131099996,8.673880068866668
9.451954742,5.915888277600001,6.017497539533333,1.1515449722433329,8.5713684074
9.459980715,5.8830419858,5.9108169874,1.2240453660366664,8.483512507533332
9.468006688,5.901876990000001,5.773672676133333,1.2643930435066661,8.421100430266666
9.476032661,5.9746221542,5.6162108104,1.2666281382066664,8.3928910886
9.484058634,6.085912609066666,5.445583661466666,1.243025144913333,8.3905845388
9.492084607,6.168967628466667,5.240238444133333,1.1931496053719997,8.343902642066666
9.50011058,6.137682724,4.940518729,1.096365597825333,8.1495397084
9.508136553,5.9576378822,4.5062105816001,0.924113300425333,7.7799527764
9.516162526,5.691336123066666,3.9713640214667665,0.6918716777586663,7.3733847424666665
9.524188499,5.379275798733333,3.373950576933433,0.437683672625333,7.0241790064
9.532214472,5.0500746408733335,2.8041977248000993,0.21981279349199967,6.674332787733333
9.540240445,4.623916403406667,2.2805311840000995,0.04815781407866636,6.342862376866666
9.548266418,3.9930624326066666,1.727639993133433,-0.07710499074800031,6.1969369446
9.556261874,3.0927189509399997,1.1070173582667664,-0.19182949169466698,6.3078652526
9.564287847,1.9718607268066666,0.4062781652667662,-0.29685034854133363,6.611769698466667
9.57231382,0.6913589479399997,-0.3980730055999004,-0.40229712429466696,7.062543281666667
9.580339793,-0.6865655263266668,-1.3196612039999003,-0.5275384674613336,7.639956486399999
9.588365766,-2.160288778926667,-2.3913809455999,-0.6492618769413335,8.3528130292
9.596391739,-3.75581315326,-3.624961725933234,-0.7029354423280003,9.212216658866668
9.604417712,-5.442284647126668,-4.969204330666567,-0.627010140814667,10.1910034784
9.612443685,-7.11842409726,-6.3451347354665675,-0.4168457547800003,11.293100611733333
9.620469658,-8.707325235859999,-7.6341355644665665,-0.02611409823333363,12.586900164466666
9.628495631,-10.124787076259999,-8.7502800624,0.550931795433333,14.055468857466668
9.636521604,-11.351964346593336,-9.684827613666666,1.2427979151666662,15.494277772933334
9.644547577,-12.393681717126668,-10.4516216278,1.9632481813666662,16.788424550133332
9.652573551,-13.277449512733334,-11.143975766799999,2.621324984233333,17.973558311266668
9.660599524,-13.955438423666665,-11.781250095466667,3.197266840913333,19.018466373333336
9.668625497,-14.340506363533335,-12.293853601066667,3.689057171339999,19.739555355066667
9.67665147,-14.394123205200001,-12.624264876266666,4.099674204953333,20.048865692
9.684677443,-14.183768718200001,-12.740076446733331,4.405520800733333,19.982463714
9.692672899,-13.771407255333335,-12.605620289066668,4.6131439964066665,19.583444902466667
9.700698872,-13.2303411172,-12.213760694066668,4.77683698734,18.92410428766667
9.708724845,-12.543921789133332,-11.5390977546,4.901322066773333,17.981132516333332
9.716750818,-11.690928968666666,-10.57845954912,4.94400494694,16.749794029933334
9.724776791,-10.6924999248,-9.385057926186667,4.852689574156,15.330949702266667
9.732802764,-9.595206070993333,-8.027256504586667,4.635009759658,13.8785936558
9.740828737,-8.400308101142667,-6.574323765386667,4.2611447155442,12.463490574533333
9.74885471,-7.157920997009334,-5.0844103338533335,3.754751662417533,11.133393982066666
9.756880683,-5.9217518494093335,-3.590902471986667,3.1803054710241994,9.979884519266669
9.764906656,-4.720899486942667,-2.1189062598533335,2.5877579152908665,9.0322375362
9.772902113,-3.557009665542666,-0.6758056481866672,2.0244883398575326,8.306876363066667
9.780928086,-2.397249190142667,0.728055524613333,1.5062871158708662,7.811261897733333
9.788954059,-1.2641204516759998,2.0733746368799997,1.046549123567533,7.522770079733333
9.796980032,-0.18370320007599997,3.3088156540133324,0.6617723167608662,7.397744721066667
9.805006005,0.844853464724,4.379515155079999,0.3693120142341996,7.423403959733333
9.813031978,1.8109435081240002,5.265848270946666,0.18193525674086633,7.5886136806
9.821057951,2.716229661257334,5.996166181479999,0.0739694178208663,7.8477163454
9.829053406,3.5365642864573332,6.57809507048,0.023188064506199643,8.210688210066667
9.83707938,4.277644093724001,7.015501832933333,0.005980904906199643,8.6690436478
9.845105354,4.939120101857333,7.3188673814,0.00418700378086631,9.1634889268
9.853131327,5.5291954675840005,7.503895060199999,0.0016962369388663098,9.605699506533334
9.8611573,6.068982760066667,7.597500673933333,-0.007928498574000355,9.9761082562
9.869183273,6.543968009933334,7.627735328666666,-0.01633594631266702,10.266009716000001
9.877209246,6.926613076533333,7.5966695468,-0.011858427519333688,10.458667330133332
9.885235219,7.213448238400001,7.512077744866667,0.019814980033999643,10.554247867733332
9.893261192,7.411293665600001,7.385111268466667,0.06351672014066631,10.568271521733333
9.901256647,7.515163993866667,7.220052115200001,0.12846099532733296,10.503225941733332
9.90928262,7.542669677800001,7.036511993533333,0.21633887289733297,10.381563189066666
9.917308593,7.523068142,6.867799759066666,0.32700982890399966,10.245316600333334
9.925334566,7.4645030976,6.741582679866666,0.4600670456973329,10.120282278933333
9.933360539,7.384907245666667,6.6708046596666675,0.5985564549906662,10.024255305266667
9.941386512,7.297076797533333,6.644334125666666,0.7227318565106664,9.953440853933333
9.949381969,7.205094273933333,6.648431778066666,0.8208806077919998,9.897743854266668
9.957407942,7.100868447666667,6.675442155333333,0.893283196285333,9.8436645678
9.965433915,6.9862730980666665,6.716784223066666,0.9445573846479998,9.787624061466666
9.973459888,6.863458728866666,6.768664868799999,0.9736261248546663,9.730092720133333
9.981485861,6.724839973533333,6.815297476533333,0.9817973136846663,9.656592020333333
9.989511834,6.593865966866667,6.8505504291333335,0.957207878423333,9.583726858533334
9.997537807,6.474698766133333,6.860918585533333,0.896260289343333,9.505334066
10.00556378,6.3746364594,6.8384102504,0.7992194056433329,9.418397371533333
10.01355924,6.271923987133334,6.7642409642666665,0.6812181154766662,9.293223885733333
10.02158521,6.121506150666667,6.615076446533333,0.5514516035899997,9.079954230666667
10.02961118,5.918160629333333,6.386035203933333,0.41424272854999966,8.771080131
10.03763716,5.6413484892,6.047063779799999,0.2675978024499996,8.3325368892
10.04566313,5.257828140300001,5.573548014946667,0.11671722330333298,7.738252417353333
10.0536891,4.7721378326999995,4.969547986946666,-0.02192319237000036,7.216475159353333
10.06171508,4.2060407957,4.285073931946666,-0.11850791377000038,6.818850762219999
10.06974105,3.549658680033333,3.5562928994133336,-0.17688497309666704,6.535847218353334
10.07776702,2.7646511714333335,2.779969326613333,-0.18970794281666706,6.4085448528199995
10.08576248,1.8096880595000002,1.9323317686133332,-0.16214166087000034,6.49132493782
10.09378845,0.7031930285000001,1.0123881816799998,-0.12899813654333367,6.759782975886666
10.10181442,-0.5277997018333331,0.011290025746666524,-0.10418358844666702,7.177058291953333
10.1098404,-1.883207829833333,-1.0882626373866668,-0.07484939696666702,7.742205651753333
10.11786637,-3.331418418633333,-2.279467280453334,-0.030813546995333695,8.45075723562
10.12589234,-4.817149511566667,-3.513370720186667,0.041083971637999636,9.251790160886666
10.13391832,-6.298492463233333,-4.762575228653334,0.1503857850846663,10.13228253782
10.14194429,-7.6896910664333324,-5.967087379786666,0.3261396010379996,11.07543169822
10.14993974,-8.955707358833333,-7.097622775786667,0.5905217011446664,12.069766771886666
10.15796572,-10.076025771300001,-8.123691812986667,0.9323887983779997,13.173139357753334
10.16599169,-11.020191414466666,-9.029570452133333,1.3297232508579997,14.424783877000001
10.17401766,-11.796647420533333,-9.818285624066668,1.7536626974646663,15.585735756
10.18204364,-12.412113188666666,-10.514640077133334,2.1710868875313327,16.58899810713333
10.19006961,-12.851972738,-11.132050005466665,2.5788820942579997,17.430217942666665
10.19806507,-13.112848916733332,-11.647295283866667,2.960687665178,18.075805933333335
10.20609104,-13.169471930533332,-12.029906527000001,3.309990783578,18.47214982066667
10.21411701,-13.0328014362,-12.262690289533333,3.6534938931846663,18.613798443333334
10.22214299,-12.729479311866667,-12.292642847466668,3.973449649418,18.475353002000002
10.23016896,-12.226531059600001,-12.094652716133334,4.277607363464667,18.032236876
10.23819493,-11.5263755474,-11.6767715454,4.557569217706667,17.301762576533335
10.2462209,-10.6799015676,-11.065034707466667,4.786910168353333,16.344828159066665
10.25424688,-9.7295822772,-10.282117303266666,4.951991852133332,15.218246915733333
10.26227285,-8.7529258086,-9.399148782076534,5.0163550854,14.0335610716
10.27029882,-7.76942720366,-8.4330853779432,4.9521377564,12.855768830866667
10.27829428,-6.765372371506667,-7.3788787363432,4.768158014666667,11.73887307
10.28632025,-5.737648709306667,-6.220570611876534,4.470603207786666,10.723365185666665
10.29434623,-4.694526735906666,-4.969465430343201,4.076194043996667,9.828503012533332
10.3023722,-3.6632402420399997,-3.6540181313432,3.596571385883333,9.071002793133335
10.31039817,-2.66701904924,-2.3075507320765336,3.0732898434166667,8.4479376086
10.31842414,-1.6746924717733331,-0.948779408209867,2.52338808775,7.9521846738
10.32645012,-0.67956781384,0.40471402819013313,1.9691761851499998,7.568414912466666
10.33444557,0.3052571932933333,1.7222098827901329,1.4199117859499997,7.311231974466667
10.34247155,1.2705930074933331,2.9402374427234665,0.9008108656166662,7.221831499133334
10.35049752,2.1686723074266667,4.031209611990133,0.3869345546166663,7.301835559133333
10.35852349,2.9724343936266666,4.9841891766568,-0.12561834251666698,7.5302577659333325
10.36654947,3.6861317317599998,5.769376230323467,-0.6378929415833337,7.9003148534
10.37457544,4.31792634336,6.3940781117234655,-1.141425192316667,8.3830365254
10.38260141,4.897420215693333,6.8939687570666655,-1.6238894422500003,8.924459382866667
10.39062739,5.423069731486667,7.275736125333334,-2.065974120316667,9.489258010933334
10.39865336,5.882046604266666,7.551970863333334,-2.448676081516667,10.008302780466668
10.40667933,6.2638684909333335,7.7343557039999995,-2.7583538453033336,10.432707080133333
10.41467479,6.5644280434,7.842884254466666,-2.9840889215800006,10.747267577933334
10.42270076,6.798995431333333,7.891726271333334,-3.1153871536666675,10.961022977999999
10.43072673,6.981883557733334,7.899986871133334,-3.1792412599333337,11.0975645692
10.43875271,7.114215374133334,7.867015679733333,-3.1762379090000006,11.158178778
10.44677868,7.200797812333334,7.792916933733333,-3.123286732066667,11.149144574
10.45480465,7.246269703066667,7.681046485933334,-3.031276718806667,11.07833722
10.46283063,7.244123522600001,7.540133285533333,-2.8991514683000004,10.948320782533333
10.4708566,7.208045482733334,7.387916215266667,-2.7273745000400003,10.780774813933332
10.47888257,7.147373263133333,7.248886267333333,-2.5180976212333332,10.600774408333335
10.48690854,7.059994697666667,7.145883305866666,-2.261229364115334,10.422141342333333
10.49493452,6.946571032266666,7.085873730999999,-1.963176546508667,10.250048968533331
10.50296049,6.807839870466666,7.069500827799999,-1.6488486667553337,10.089112399800001
10.51098646,6.638874435466666,7.0790838877999995,-1.3389017144620003,9.927735633266668
10.51901244,6.447932942733333,7.101760387533333,-1.0456990182286672,9.766527876466665
10.52703841,6.241336409266666,7.126112365799999,-0.780604144908667,9.603405200600001
10.53506438,6.0121610324,7.140713787133333,-0.5517022063020003,9.431155429133334
10.54309036,5.756076494866667,7.138423919733333,-0.37062994535800037,9.243194697466667
10.55111633,5.483222309733333,7.0995749792,-0.24002939658466704,9.027719597666668
10.55911178,5.1788040002,7.0080284436666656,-0.16337912877133368,8.762786633266668
10.56713776,4.8226493994,6.841554578133333,-0.1370553811313337,8.421306002733333
10.57516373,4.3914653301066675,6.569234228133333,-0.149521517724667,7.975012213733335
10.5831897,3.90280779198,6.170043802266666,-0.17871270176466705,7.4462324328000005
10.59121568,3.4033236980466666,5.66796997388,-0.20672240452466706,6.9257584926
10.59924165,2.9133284410466667,5.0803910096800005,-0.21316188569800035,6.463334116266667
10.60726762,2.4378445466466667,4.4502329667466665,-0.21398356652200037,6.042470868866667
10.6152936,1.9365601699133335,3.802476485546667,-0.22420899864000038,5.668058781
10.62331957,1.3662858169133332,3.1117728710133337,-0.24855016615200037,5.3836330592
10.63134554,0.7192001184466665,2.400981251346666,-0.294983338778667,5.195570909333333
10.63937152,0.0022898515799999685,1.6740853150133332,-0.3659077062853337,5.098479007533333
10.64739749,-0.79005583122,0.9055699506799999,-0.4438305164053337,5.10972419
10.65539295,-1.63848277722,0.0794757683466664,-0.5219148858786671,5.240814797466667
10.66341892,-2.5260937530866667,-0.8343422413866669,-0.5989560767560004,5.500775905799999
10.67144489,-3.42114906302,-1.8466615519200005,-0.644694250282667,5.887133502933334
10.67947086,-4.272912152553333,-2.9157129448533334,-0.6350955043760004,6.39183223
10.68749684,-5.03261369062,-3.9598083657200003,-0.5555358801826671,7.007640926533333
10.69552281,-5.677611795993333,-4.920968469186667,-0.3886797820493337,7.754253393533333
10.70354878,-6.242118898933333,-5.771068572986667,-0.169331661382667,8.632199189266666
10.71157476,-6.785391743933333,-6.528973325333334,0.05248523998399965,9.5427614294
10.71960073,-7.3381278356,-7.190853881933333,0.22128830201733296,10.413292055333335
10.72759619,-7.931316566333333,-7.787032604466668,0.366584626323333,11.261685810066668
10.73562216,-8.531945069533332,-8.349234581333333,0.514617397901333,12.0944629624
10.74364813,-9.098037497,-8.866547457466668,0.684613811993333,12.873891648266666
10.75167411,-9.607250054266666,-9.344592539533332,0.8877450665266663,13.583841772666668
10.75970008,-10.057980600266667,-9.768636925866668,1.1280517578666662,14.2123564946
10.76772605,-10.4102845502,-10.0911152202,1.397596200333333,14.702319378666665
10.77575202,-10.6354680372,-10.271730200266667,1.6748654206666662,15.008815144000001
10.783778,-10.742256672266667,-10.287235196266666,1.951120328933333,15.124739495999998
10.79177345,-10.7448634456,-10.106179682266665,2.189123853086666,15.038438281333333
10.79979943,-10.681412505133334,-9.760998948200001,2.3599939783666666,14.791248793333333
10.8078254,-10.583813094133335,-9.309798812600002,2.4550170580666664,14.443054268
10.81585137,-10.445323911333332,-8.780787753800002,2.4506278117999996,14.00174213
10.82387734,-10.2318112364,-8.181786123866667,2.360888425573333,13.446084693533333
10.83190332,-9.938886196466665,-7.509568818133333,2.22061895536,12.783868264066665
10.83992929,-9.558668580666666,-6.776364644246667,2.0629400095066663,12.036872270599998
10.84795526,-9.0739104262,-5.990146859193333,1.882312687293333,11.222639808733334
10.85598124,-8.477689360666666,-5.141371186193333,1.6796978076533329,10.3666479632
10.86397669,-7.765331712533334,-4.2124881901933335,1.4494775613333328,9.509151220733335
10.87200267,-6.95996185878,-3.220433187326667,1.2020869652666664,8.697508733466666
10.88002864,-6.063098334986666,-2.176636489326667,0.9367955048666663,7.971310906333334
10.88805461,-5.104438495386666,-1.1170901776600002,0.6520632743999997,7.3696789992000005
10.89608059,-4.114608128586666,-0.0821559747933336,0.36510540646666634,6.925243802599999
10.90410656,-3.099394098853333,0.9201418399399998,0.09007747966666631,6.627992709533333
10.91213253,-2.09023567832,1.861503330873333,-0.163080040666667,6.483530233600001
10.92012799,-1.1099242209866667,2.7298875332066666,-0.380766161326667,6.452359348000001
10.92815396,-0.14859450651999997,3.52224847474,-0.5601953745200005,6.51065161
10.93617993,0.7812654813466667,4.2476953029399995,-0.6915275494733336,6.660331921333333
10.94420591,1.6637286822133333,4.917872349406666,-0.7737553994333336,6.909590911133334
10.95223188,2.493708038346667,5.518162616073334,-0.803138812432667,7.2448307086
10.96025785,3.26001653668,6.0342029730533335,-0.777494128592667,7.653973046066667
10.96828383,3.96567319228,6.461904287333332,-0.7145918131326671,8.114116025933333
10.9763098,4.60700448348,6.7959372043999995,-0.6256223202193337,8.583149424133332
10.98433577,5.1760648090800006,7.034767246266666,-0.5133888205326671,9.013151193266667
10.99233123,5.6804476101266665,7.196455828333333,-0.39237614081933364,9.378907988733333
11.0003572,6.109814961666666,7.282854429866666,-0.2671101729460003,9.662510937399999
11.00838317,6.466610526933334,7.310009225200001,-0.14730652177933365,9.870157659866667
11.01640915,6.745898723533333,7.295102850599999,-0.03495385255933368,10.010175388466667
11.02443512,6.947768274866666,7.2576590219999995,0.058035834593999656,10.0954547042
11.03246109,7.0881327946,7.2232710202,0.12597819566199966,10.151841412133333
11.04048707,7.1970761616,7.211472924533333,0.16747874418199965,10.209799549733333
11.04848252,7.269818687333332,7.2224115372,0.187547878415333,10.2645964804
11.0565085,7.307835864933334,7.2592026074666665,0.18540229399533298,10.317417445733334
11.06453447,7.315203444133333,7.312895011933334,0.1583867430686663,10.363347024400001
11.07256044,7.297199726066666,7.378422641799999,0.109178610641333,10.401315699066666
11.08058641,7.260606575000001,7.4538131714,0.04440723260133299,10.433474397733333
11.08861239,7.195491218533333,7.528427473733332,-0.018713498118667016,10.444943699733333
11.09663836,7.1039340654666665,7.596028518666667,-0.07087358633866701,10.4323518064
11.10466433,6.993495241733332,7.654495239266667,-0.11068042517200037,10.399616026733334
11.11269031,6.8732533772,7.690805371600001,-0.13601683775866702,10.344173114066667
11.12071628,6.738701693133334,7.6985194523999985,-0.14663553635200036,10.2596669274
11.12874225,6.5559759457333335,7.6646942138666665,-0.14416625102533367,10.1158336832
11.13673771,6.297111527066666,7.569054603533333,-0.14198271035866702,9.880946433
11.14476368,5.945899883866667,7.374329630466667,-0.13558173179200034,9.517871117866667
11.15278966,5.474500958106668,7.062159522333333,-0.11374383369333367,9.010123106666667
11.16081563,4.887103001240001,6.601513592333333,-0.07199080784000035,8.398547387133332
11.1688416,4.2062583127733335,6.009163935893333,-0.008799668140000353,7.8663019257333335
11.17686758,3.4903130689733337,5.320081186226667,0.07491629919333298,7.4026298915333335
11.18489355,2.776984580306667,4.5657576082933335,0.17531588475333298,6.972833494600001
11.19291952,2.0583804925066667,3.755295610293333,0.267374968533333,6.598698976466666
11.20094549,1.2979978720399998,2.8896351336266664,0.33232307433999964,6.319055505066667
11.20897147,0.4372611841066666,1.9319497902266667,0.367956272763333,6.2300885084
11.21699744,-0.5874681630933334,0.8407651105599998,0.391198424503333,6.4212687204
11.2249929,-1.7628496010933332,-0.38919431390666676,0.41714539130999967,6.875201438733334
11.23301887,-3.022709894026667,-1.7262397611733333,0.4719564040499996,7.5156214452
11.24104484,-4.295814307293333,-3.1201103055066666,0.5975082000366663,8.268252580333334
11.24907082,-5.522474145426667,-4.540270186040001,0.8143549998766664,9.126261530533332
11.25709679,-6.654992452826667,-5.969361671573334,1.1539207657233328,10.123503614733332
11.26512276,-7.648353798693333,-7.352232091373334,1.592281186603333,11.263656180533333
11.27314874,-8.456623013333333,-8.652851423040001,2.082923058703333,12.517507059066668
11.28117471,-9.080293527533334,-9.81142660844,2.589117070056666,13.815194695933334
11.28920068,-9.5371370308,-10.8173965778,3.0876390258499997,14.971680452
11.29722665,-9.892110633133335,-11.695774842066667,3.550135890623333,15.981566060866667
11.30522211,-10.204745482733333,-12.460858981666666,3.93661400871,16.863444276466666
11.31324808,-10.524617258066666,-13.094823965266668,4.235138018903333,17.613171707266666
11.32127406,-10.836819807066668,-13.559668732400002,4.442820862883333,18.193316224
11.32930003,-11.039269701066667,-13.785502307333335,4.546537729066666,18.501814079333332
11.337326,-11.0167126332,-13.711724472733334,4.525734941126666,18.43650507466667
11.34535198,-10.784385616933331,-13.374807263000001,4.412306626586666,18.048282216666667
11.35337795,-10.389365005,-12.800934696533334,4.218524877186666,17.392725160133335
11.36140392,-9.871727720466668,-12.034154383733334,3.9227947552533333,16.527521651066667
11.36942989,-9.254717826666667,-11.102138773786667,3.5317217826533334,15.488691062066668
11.37745587,-8.567827733133333,-10.010681724526668,3.0438900867866665,14.305389239466669
11.38548184,-7.860136858466666,-8.786972872393333,2.5049740870533332,13.062524412399998
11.39350781,-7.185422547466667,-7.47009420426,1.96012139316,11.855753727333333
11.40150327,-6.541325823466667,-6.070637353326666,1.4440938472466662,10.758637317866665
11.40952924,-5.931256167113333,-4.606897767526667,0.964029852533333,9.806176832533334
11.41755522,-5.3564364751273335,-3.100720850593334,0.5304857571999996,9.0124069348
11.42558119,-4.792445437107333,-1.586152012993334,0.16742393179999962,8.375516746866667
11.43360716,-4.175163904794,-0.10532188399333364,-0.11458554264666704,7.864570085066666
11.44163314,-3.483146508527333,1.309806442273333,-0.3109682559400004,7.486748933066666
11.44965911,-2.7348227500606668,2.6340990702733333,-0.412473177861267,7.267031141733333
11.45768508,-1.9681804657273332,3.852209091006666,-0.407730634961267,7.225065217066667
11.46571105,-1.173641554527333,4.99021857594,-0.34104883664793373,7.313037549733333
11.47373703,-0.3717133203939999,6.026923783473333,-0.2544720331279337,7.5376620816
11.481763,0.40606873827266676,6.932455444006666,-0.1711400190679337,7.900053927333333
11.48978897,1.1256847381393336,7.69285081206,-0.10489312010126702,8.370618803000001
11.49781495,1.7904025395393335,8.306102816066666,-0.06907922423460035,8.9087500616
11.50584092,2.4125583966060002,8.778302192466667,-0.07571708356793369,9.458604487999999
