"Time (s)","Linear Acceleration x (m/s^2)","Linear Acceleration y (m/s^2)","Linear Acceleration z (m/s^2)","Absolute acceleration (m/s^2)"
1.561111500E-2,-7.282152176E-1,-7.246356010E-1,-8.111233711E-1,1.308936698E0
2.363708800E-2,-6.111421585E-1,-6.216940880E-1,-9.433164597E-1,1.284462619E0
3.166306100E-2,-7.385439873E-1,-6.372146606E-1,-6.385178566E-1,1.165845100E0
3.968903400E-2,-1.048241138E0,-7.343125343E-1,-4.058051109E-1,1.342647448E0
4.771500700E-2,-1.143613338E0,-7.701439857E-1,-1.882739067E-1,1.391553194E0
5.574098000E-2,-1.031596184E0,-7.235884666E-1,2.232542038E-1,1.279692696E0
6.376695300E-2,-8.393654823E-1,-6.556153297E-1,5.567684174E-1,1.201814022E0
7.179292600E-2,-7.373929024E-1,-6.542930603E-1,9.647517204E-1,1.379345346E0
7.981889900E-2,-6.659350395E-1,-9.429783821E-1,1.325156212E0,1.757474521E0
8.784487200E-2,-7.840013504E-1,-1.683097601E0,1.038103104E0,2.127236166E0
9.587084500E-2,-1.381340265E0,-2.445367813E0,1.009840488E0,2.984577438E0
1.038968190E-1,-1.146371365E0,-2.630474567E0,7.591991425E-1,2.968155504E0
1.119227920E-1,-4.269943237E-1,-2.508219004E0,1.139870167E0,2.787972511E0
1.199182480E-1,-5.283212662E-2,-2.196802139E0,1.457361221E0,2.636784519E0
1.279442210E-1,2.366409302E-1,-1.727760315E0,1.486476898E0,2.291455477E0
1.359701940E-1,5.743694305E-1,-1.559742332E0,1.908731461E0,2.530998256E0
1.439961670E-1,8.991007805E-1,-1.466240644E0,2.925938606E0,3.394018351E0
1.520221400E-1,6.926608086E-1,-1.361023426E0,5.009174347E0,5.236792091E0
1.600481130E-1,-6.048130989E-2,-1.562193274E0,5.853549957E0,6.058725354E0
1.680740860E-1,-3.734765053E-1,-1.491084456E0,4.646507263E0,4.894164617E0
1.761000590E-1,-7.071270943E-1,-1.253286839E0,2.725971222E0,3.082478829E0
1.841260320E-1,-1.008542299E0,-1.195908189E0,9.720344543E-1,1.841793948E0
1.921520050E-1,-1.199029207E0,-1.405657768E0,-2.141456604E-1,1.859947087E0
2.001779790E-1,-9.075682163E-1,-2.103446484E0,-9.502124786E-1,2.480135265E0
2.082039520E-1,-9.841167927E-1,-2.566585541E0,-1.179331779E0,2.991098568E0
2.162299250E-1,-1.298806310E0,-2.041605711E0,-6.232194901E-1,2.498690505E0
2.242558980E-1,-6.644694805E-1,-1.030487895E0,-1.965160370E-1,1.241790459E0
2.322818710E-1,-5.254883766E-1,-6.492990851E-1,-5.892496109E-1,1.022224261E0
2.403078440E-1,-6.196560860E-1,-7.322281599E-1,-1.788474560E0,2.029476039E0
2.483032990E-1,-1.101123095E0,-4.972174466E-1,-3.371007919E0,3.580976354E0
2.563292720E-1,-1.274506807E0,-6.872227192E-1,-4.199445724E0,4.442070132E0
2.643552450E-1,-8.544800282E-1,-6.678016186E-1,-4.596863270E0,4.723054842E0
2.723812180E-1,-4.263708591E-1,-4.814801812E-1,-4.167416096E0,4.216749007E0
2.804071910E-1,-1.773531318E0,-2.561051607E0,-4.776869774E0,5.702883789E0
2.884331640E-1,-1.871118307E0,-3.502666712E0,-4.597121716E0,6.074807477E0
2.964591380E-1,-4.537186623E-1,1.584775448E-1,-4.261066437E0,4.288083830E0
3.044851110E-1,5.585951805E-1,3.072617054E0,-2.936820507E0,4.286947495E0
3.125110840E-1,1.632585287E0,3.080175877E0,1.350461960E0,3.738524529E0
3.205370570E-1,-8.688154221E-1,1.640049458E0,1.584482193E0,2.440325036E0
3.285630310E-1,-4.260538578E0,-1.611756563E0,3.656439781E0,5.841189953E0
3.365890040E-1,-5.040454865E0,-3.184583664E0,4.248947144E0,7.321291565E0
3.446149770E-1,-3.088687420E0,-1.550536394E0,4.594905853E0,5.749548929E0
3.526409500E-1,-2.368880510E0,3.707140684E-1,2.735860825E0,3.637850773E0
3.606364050E-1,-2.774436712E0,1.374146223E0,1.339373589E0,3.373380874E0
3.686623780E-1,-3.819125652E0,1.591756225E0,7.006835938E-2,4.138153961E0
3.766883510E-1,-4.544322014E0,1.623219252E0,-1.047330856E0,4.937874566E0
3.847143240E-1,-4.909137726E0,2.041303635E0,-1.588200569E0,5.548777774E0
3.927402970E-1,-5.162764549E0,2.757275343E0,-1.460575104E0,6.032411188E0
4.007662710E-1,-5.076658726E0,3.579546928E0,-9.297380447E-1,6.280926115E0
4.087922440E-1,-4.614228249E0,4.345996857E0,-3.183288574E-1,6.346662451E0
4.168182170E-1,-4.026150703E0,4.643852711E0,-7.152509689E-1,6.187636175E0
4.248441900E-1,-3.545194864E0,4.471105099E0,-1.192919731E0,5.829429210E0
4.328701630E-1,-3.460553169E0,3.777187347E0,-1.469171524E0,5.329262375E0
4.408961360E-1,-4.014900208E0,2.924705982E0,-1.729178429E0,5.259599490E0
4.489221090E-1,-4.676953316E0,2.355778217E0,-1.723270893E0,5.513006974E0
4.569480820E-1,-5.626078606E0,1.939762235E0,-1.151237488E0,6.061417801E0
4.649740550E-1,-5.464656353E0,2.326518536E0,-1.975288391E-1,5.942573112E0
4.730000280E-1,-4.744798183E0,3.021036148E0,7.914428711E-1,5.680330187E0
4.810260010E-1,-4.095406055E0,4.278291702E0,1.726540565E0,6.169041495E0
4.890519740E-1,-3.501202822E0,6.051265240E0,3.260179520E0,7.713948580E0
4.970779470E-1,-2.823762178E0,7.952956676E0,5.817365646E0,1.025011687E1
5.050734040E-1,-1.766946912E0,9.127863884E0,9.123308182E0,1.302592617E1
5.130993770E-1,-2.809256315E0,7.376366615E0,1.198741150E1,1.435272587E1
5.211253500E-1,-4.844433308E0,4.587831497E0,1.436853981E1,1.584208535E1
5.291513230E-1,-5.578321934E0,3.315898418E0,1.680189514E1,1.801156679E1
5.371772960E-1,-5.933162689E0,2.846606731E0,1.805175400E1,1.921383386E1
5.452032690E-1,-6.124201775E0,2.666978598E0,1.769750977E1,1.891614321E1
5.532292420E-1,-6.435889721E0,2.096391678E0,1.655650330E1,1.788668041E1
5.612552150E-1,-7.347782135E0,1.443692446E0,1.524716663E1,1.698676663E1
5.692811880E-1,-7.760134697E0,9.282834530E-1,1.386935616E1,1.591981284E1
5.773071610E-1,-6.832676411E0,1.517487526E0,1.163198566E1,1.357539413E1
5.853331340E-1,-5.725906372E0,2.509237289E0,9.088886261E0,1.103132490E1
5.933285910E-1,-5.496972084E0,2.430062056E0,6.788957596E0,9.067074993E0
6.013545640E-1,-5.287540436E0,1.968516469E0,4.727239609E0,7.360702091E0
6.093805370E-1,-5.812520504E0,1.661516309E0,2.628129959E0,6.591896399E0
6.174065100E-1,-5.680093765E0,1.864624977E0,1.011989594E0,6.063366592E0
6.254324830E-1,-5.827125549E0,2.208014727E0,-1.046074867E0,6.318622779E0
6.334584560E-1,-3.929132223E0,2.445074558E0,-1.774036407E0,4.956175420E0
6.414844290E-1,-2.579359770E0,1.882656336E0,-1.653199196E0,3.595908687E0
6.495104020E-1,-3.232495308E0,1.446292162E0,-2.864435196E0,4.554753114E0
6.575363750E-1,-3.167934895E0,8.572666049E-1,-2.611169338E0,4.193914978E0
6.655623480E-1,-3.122780800E0,-4.850218892E-1,-1.822628975E0,3.648147823E0
6.735578030E-1,-3.143243790E0,-1.564340353E0,-1.109787941E0,3.682223722E0
6.815837760E-1,-2.829497337E0,-1.756434560E0,-1.011851311E0,3.480655200E0
6.896097490E-1,-2.078676462E0,-1.261427879E0,-1.523675442E0,2.869439489E0
6.976357230E-1,-1.156819105E0,-9.403871298E-1,-2.139440536E0,2.607635750E0
7.056616960E-1,-3.557310104E-1,-8.965140581E-1,-2.742712975E0,2.907362459E0
7.136876690E-1,4.133615494E-1,-7.443990707E-1,-3.707268238E0,3.803792257E0
7.217136420E-1,6.549220085E-1,-6.439627409E-1,-4.697639942E0,4.786588751E0
7.297396150E-1,5.814104080E-1,-7.744727135E-1,-5.348264694E0,5.435235164E0
7.377655880E-1,3.464858532E-1,-7.576448917E-1,-5.867928505E0,5.926775107E0
7.457915610E-1,9.084272385E-2,-6.485436559E-1,-6.246562958E0,6.280796929E0
7.538175340E-1,-3.464488983E-1,-5.619469881E-1,-6.261439323E0,6.296144349E0
7.618129900E-1,-1.224260569E0,-3.616946936E-1,-5.988357544E0,6.122912956E0
7.698389630E-1,-2.408440590E0,-4.085030854E-1,-5.552698612E0,6.066293986E0
7.778649360E-1,-2.926539183E0,-1.889684796E-1,-5.106173515E0,5.888407989E0
7.858909090E-1,-3.906747341E0,5.154030323E-1,-6.082083702E0,7.247072321E0
7.939168830E-1,-4.137331009E0,7.871952653E-1,-6.944961548E0,8.122171826E0
8.019428560E-1,-4.150619507E0,6.910401583E-1,-8.250708580E0,9.261715331E0
8.099688290E-1,-3.400089264E0,6.447764635E-1,-9.936862946E0,1.052224258E1
8.179948020E-1,-2.513708353E0,8.162614107E-1,-1.128937244E1,1.159460834E1
8.260207750E-1,-3.878139734E0,2.674589157E0,-1.152844620E1,1.245385349E1
8.340467480E-1,-3.156826496E0,5.580065250E-1,-1.195701504E1,1.237930262E1
8.420422040E-1,-1.846817493E0,-7.573879957E-1,-1.297722054E1,1.312983718E1
8.500681770E-1,-2.011106491E0,-5.286886096E-1,-1.345205116E1,1.361182359E1
8.580941500E-1,-2.354725122E0,6.625521183E-2,-1.274138260E1,1.295731263E1
8.661201230E-1,-2.209165573E0,-3.921129704E-1,-1.166242504E1,1.187629248E1
8.741460960E-1,-2.433193922E0,-1.291429281E0,-1.075611019E1,1.110324857E1
8.821720690E-1,-2.750995636E0,-1.689586401E0,-9.904455185E0,1.041733707E1
8.901980430E-1,-3.097513199E0,-1.502236009E0,-8.939533234E0,9.579486180E0
8.982240160E-1,-3.137023211E0,-9.869699478E-1,-8.100335121E0,8.742451222E0
9.062499890E-1,-3.443925858E0,-8.425813913E-2,-7.423029900E0,8.183464892E0
9.142759620E-1,-2.707669497E0,-6.639115214E-1,-6.904829025E0,7.446402922E0
9.222714170E-1,-1.843405247E0,-8.943639994E-1,-6.644801140E0,6.953517963E0
9.302973900E-1,-1.569614887E0,-7.599834204E-1,-6.509350777E0,6.738910389E0
9.383233630E-1,-2.149764061E0,-8.518438339E-1,-6.134755135E0,6.556092128E0
9.463493360E-1,-2.350514889E0,-9.753309488E-1,-5.675814629E0,6.220214016E0
9.543753090E-1,-2.541495323E0,-6.036105156E-1,-5.120558739E0,5.748362021E0
9.624012830E-1,-2.635200024E0,4.384064972E-1,-3.757471085E0,4.610321938E0
9.704272560E-1,-2.900741816E0,1.936560035E0,-2.453958511E0,4.264560965E0
9.784532290E-1,-3.255359173E0,2.954315662E0,-7.481985092E-1,4.459276330E0
9.864792020E-1,-3.653350830E0,3.375573635E0,1.415821075E0,5.171655342E0
9.945051760E-1,-4.375259399E0,3.961787701E0,3.593044281E0,6.910037902E0
1.002531149E0,-5.507663727E0,4.425816059E0,5.725590706E0,9.094206752E0
1.010557122E0,-6.218725204E0,3.819540262E0,7.556583405E0,1.050539784E1
1.018583095E0,-6.387927055E0,2.740467548E0,9.495086670E0,1.176743155E1
1.026609068E0,-6.016356468E0,2.002186298E0,1.144616890E1,1.308510900E1
1.034635041E0,-5.438601494E0,1.783681154E0,1.270752430E1,1.393703980E1
1.042630496E0,-4.370362759E0,2.039181709E0,1.335177517E1,1.419606399E1
1.050656469E0,-3.439936638E0,2.859144449E0,1.373498440E1,1.444498762E1
1.058682442E0,-3.268432140E0,3.913395882E0,1.410720062E1,1.500034751E1
1.066708415E0,-3.816607475E0,5.292981148E0,1.480553532E1,1.617980278E1
1.074734388E0,-5.001795292E0,6.609132290E0,1.605184174E1,1.806544239E1
1.082760361E0,-6.195216179E0,7.020203114E0,1.768544769E1,2.001097237E1
1.090786335E0,-6.913713455E0,6.724404335E0,2.022826576E1,2.240981444E1
1.098812308E0,-7.012012005E0,6.345502853E0,2.250845146E1,2.441442414E1
1.106838281E0,-6.406384468E0,5.806869507E0,2.341987038E1,2.496501199E1
1.114864254E0,-5.186204910E0,5.210015774E0,2.306269455E1,2.420596756E1
1.122890227E0,-3.519275427E0,4.928122997E0,2.149699974E1,2.233366727E1
1.130916200E0,-2.058561563E0,4.738249779E0,1.955838966E1,2.022916936E1
1.138942173E0,-9.198206663E-1,4.781896114E0,1.694750214E1,1.763321948E1
1.146968146E0,-3.043391705E-1,4.620331287E0,1.392168522E1,1.467151672E1
1.154994119E0,-1.112318039E-2,4.141887188E0,1.052377701E1,1.130951969E1
1.163020092E0,2.060604095E-1,3.420880795E0,6.753950119E0,7.573686587E0
1.171046065E0,1.271994114E-1,2.788715363E0,2.903071404E0,4.027522394E0
1.179072038E0,-2.515935898E-1,2.349763155E0,-4.856071472E-1,2.412571350E0
1.187098011E0,-7.877371311E-1,1.811352730E0,-4.280933857E0,4.714649848E0
1.195123984E0,-1.219655991E0,1.308991790E0,-7.164530277E0,7.384545642E0
1.203149957E0,-1.777949095E0,6.776548028E-1,-8.797423363E0,9.000832008E0
1.211175930E0,-2.298251629E0,-2.024526522E-2,-9.647142410E0,9.917143092E0
1.219171387E0,-2.541229248E0,-7.404358983E-1,-9.772982597E0,1.012508174E1
1.227197360E0,-2.738697767E0,-1.091502190E0,-9.541151047E0,9.986260851E0
1.235223333E0,-2.891868591E0,-1.130401731E0,-9.301602364E0,9.806146978E0
1.243249306E0,-3.356274605E0,-8.501339555E-1,-9.310039520E0,9.932982575E0
1.251275279E0,-3.676368713E0,-3.175943792E-1,-9.834979057E0,1.050444507E1
1.259301252E0,-3.650179863E0,1.332705617E-1,-1.080583763E1,1.140647627E1
1.267327225E0,-3.432123184E0,4.104123712E-1,-1.158239365E1,1.208717297E1
1.275353198E0,-3.115000486E0,5.429114103E-1,-1.202048492E1,1.242940218E1
1.283379171E0,-2.824410915E0,5.210645795E-1,-1.235859871E1,1.268793787E1
1.291405144E0,-2.742367506E0,5.195088387E-1,-1.211605167E1,1.243338961E1
1.299431117E0,-2.668287039E0,5.592943430E-1,-1.147852135E1,1.179783956E1
1.307457090E0,-2.499354362E0,3.956719637E-1,-1.046161938E1,1.076330844E1
1.315483063E0,-2.214068413E0,3.287342191E-2,-9.230569839E0,9.492449587E0
1.323509036E0,-2.018560410E0,-4.320471287E-1,-8.034858704E0,8.295794431E0
1.331535009E0,-2.081730843E0,-9.478223324E-1,-6.683711052E0,7.064273770E0
1.339560982E0,-2.220548391E0,-1.352811098E0,-5.697506905E0,6.262788353E0
1.347556439E0,-2.338340044E0,-1.651124835E0,-5.488936424E0,6.190514555E0
1.355582412E0,-2.629759073E0,-1.821842909E0,-6.020755768E0,6.817935493E0
1.363608385E0,-2.724035740E0,-1.940969586E0,-6.982921600E0,7.742669289E0
1.371634358E0,-2.614090919E0,-1.953877211E0,-8.000141144E0,8.640217926E0
1.379660331E0,-2.352300882E0,-1.886402965E0,-8.993522644E0,9.485530303E0
1.387686304E0,-2.201049805E0,-1.830041528E0,-9.643527985E0,1.005938886E1
1.395712277E0,-2.210285664E0,-1.800511003E0,-1.032650661E1,1.071279335E1
1.403738250E0,-2.282210350E0,-1.866374731E0,-1.081794167E1,1.121247968E1
1.411764223E0,-2.226022720E0,-1.941199660E0,-1.091062737E1,1.130332795E1
1.419790196E0,-2.160221338E0,-1.700246334E0,-1.072400093E1,1.107075380E1
1.427816169E0,-2.191923857E0,-1.371807098E0,-1.062913799E1,1.093914802E1
1.435842142E0,-2.383135080E0,-9.452500939E-1,-1.072207260E1,1.102432181E1
1.443868115E0,-2.995007992E0,-7.349653244E-1,-1.011679935E1,1.057638294E1
1.451894088E0,-3.596731901E0,-3.978793919E-1,-9.326367378E0,1.000379512E1
1.459920062E0,-3.667852879E0,-4.403394461E-2,-8.505578041E0,9.262825786E0
1.467915518E0,-3.586372375E0,3.423805833E-1,-7.463440418E0,8.287474534E0
1.475941491E0,-3.084304333E0,7.426532507E-1,-6.240357876E0,7.000466662E0
1.483967464E0,-1.918794155E0,1.262422442E0,-5.070193768E0,5.566178786E0
1.491993437E0,-1.054475784E0,1.727340460E0,-3.950471878E0,4.438676864E0
1.500019410E0,-1.187366247E0,2.236790180E0,-2.728055954E0,3.722278631E0
1.508045383E0,-2.080010653E0,2.483451366E0,-1.102831841E0,3.422018859E0
1.516071356E0,-3.284822702E0,2.794118404E0,2.137281418E0,4.813016695E0
1.524097329E0,-4.948044777E0,3.165364742E0,6.478106499E0,8.744629488E0
1.532123302E0,-6.619486809E0,3.697045803E0,1.126592922E1,1.357965075E1
1.540149275E0,-7.359260559E0,4.183811188E0,1.571019554E1,1.784581845E1
1.548175248E0,-6.976789474E0,4.775494099E0,1.889294624E1,2.069841426E1
1.556201222E0,-5.800628185E0,5.503044128E0,1.993339157E1,2.147721773E1
1.564227195E0,-4.287642002E0,6.674967289E0,1.995646858E1,2.147556054E1
1.572253168E0,-2.854270458E0,7.910067081E0,1.957551575E1,2.130532417E1
1.580279141E0,-2.545610428E0,8.749290466E0,1.884512329E1,2.093248404E1
1.588274596E0,-3.905058861E0,9.121934891E0,1.812312698E1,2.066172579E1
1.596300569E0,-6.599882603E0,8.530455589E0,1.847068405E1,2.138909283E1
1.604326542E0,-9.625210762E0,7.856343746E0,1.967628098E1,2.327064357E1
1.612352515E0,-1.260684586E1,7.696325302E0,2.125229454E1,2.588099706E1
1.620378488E0,-1.353763199E1,7.591961384E0,2.209909630E1,2.700509979E1
1.628404461E0,-1.209288692E1,7.416560650E0,2.159762764E1,2.583990723E1
1.636430434E0,-9.508543015E0,7.630588055E0,1.956234360E1,2.305045664E1
1.644456407E0,-6.938611031E0,7.993302345E0,1.654774284E1,1.964344671E1
1.652482380E0,-5.282055855E0,8.078589439E0,1.385882950E1,1.688877960E1
1.660508354E0,-4.076501846E0,7.927065849E0,1.081014347E1,1.401126126E1
1.668534327E0,-3.499874592E0,7.538476944E0,7.913253784E0,1.147594625E1
1.676560300E0,-3.293281555E0,6.968762398E0,5.152010918E0,9.271060848E0
1.684586274E0,-3.257894516E0,5.969633102E0,2.418793678E0,7.218099398E0
1.692612247E0,-2.866960526E0,4.786145210E0,-2.631950378E-1,5.585330810E0
1.700638220E0,-2.341752291E0,3.720346928E0,-2.364100456E0,4.991368151E0
1.708664193E0,-1.979419351E0,2.555809021E0,-4.125391006E0,5.241098327E0
1.716690166E0,-2.147867680E0,1.294841528E0,-5.473118782E0,6.020380333E0
1.724716139E0,-2.565301418E0,-1.919913292E-1,-6.529443741E0,7.017924736E0
1.732742112E0,-3.032802820E0,-1.624676466E0,-7.266594887E0,8.039954466E0
1.740737567E0,-3.950955868E0,-3.165507317E0,-7.747967720E0,9.255349406E0
1.748763540E0,-4.725472927E0,-4.285148144E0,-7.933249474E0,1.017983478E1
1.756789514E0,-5.334481716E0,-4.698901653E0,-7.578907490E0,1.039116022E1
1.764815487E0,-5.938611507E0,-6.240050316E0,-7.903702736E0,1.169075924E1
1.772841460E0,-3.980759144E0,-6.053985596E0,-9.379965782E0,1.185246569E1
1.780867433E0,-1.009330630E0,-5.016206741E0,-9.660908699E0,1.093225664E1
1.788893406E0,3.808915138E0,-5.306167603E0,-1.106066227E1,1.284529093E1
1.796919379E0,6.875661850E0,-4.772574425E0,-1.154184341E1,1.425715055E1
1.804945352E0,7.117142677E0,-4.313724041E0,-1.094668388E1,1.375106625E1
1.812971325E0,6.614639759E0,-4.552973270E0,-1.016523743E1,1.295434586E1
1.820997298E0,7.233705521E0,-5.365189552E0,-9.614001274E0,1.317348758E1
1.829023271E0,7.717856884E0,-6.597752571E0,-8.981035233E0,1.355561314E1
1.837049244E0,8.827993393E0,-7.657104492E0,-8.846280098E0,1.465678642E1
1.845044700E0,1.016644096E1,-8.406732559E0,-9.334562302E0,1.616056087E1
1.853070674E0,1.026275635E1,-8.825846672E0,-9.443922997E0,1.650476958E1
1.861096647E0,1.017222977E1,-1.055767918E1,-9.000742912E0,1.720326193E1
1.869122620E0,8.084437370E0,-9.417187691E0,-8.702154160E0,1.515813440E1
1.877148593E0,6.292007923E0,-7.863976479E0,-8.889860153E0,1.343358118E1
1.885174566E0,4.645630360E0,-6.465048790E0,-1.087602806E1,1.347837986E1
1.893200539E0,3.755006075E0,-7.005258560E0,-1.172214317E1,1.416271015E1
1.901226512E0,3.744145870E0,-8.884294510E0,-1.114448929E1,1.473597498E1
1.909252485E0,3.902043581E0,-9.597953796E0,-1.006687546E1,1.444605976E1
1.917278458E0,4.884696960E0,-9.999006271E0,-8.662321091E0,1.410234723E1
1.925273914E0,6.060693264E0,-1.020927238E1,-6.920954704E0,1.374266566E1
1.933299887E0,6.685207844E0,-1.019573784E1,-5.420159340E0,1.334253354E1
1.941325860E0,6.902782917E0,-1.039542866E1,-4.541896343E0,1.327938897E1
1.949351833E0,7.169821739E0,-1.070258808E1,-4.771626472E0,1.373754544E1
1.957377807E0,7.654274940E0,-1.081927395E1,-5.361937523E0,1.429667750E1
1.965403780E0,7.778928757E0,-1.132694244E1,-6.132378578E0,1.504717331E1
1.973429753E0,7.642778397E0,-1.253882408E1,-6.751728058E0,1.616230190E1
1.981455726E0,9.011362076E0,-1.484701920E1,-6.985669136E0,1.871999462E1
1.989481699E0,7.146833420E0,-1.405666828E1,-6.099931240E0,1.690787722E1
1.997507672E0,7.270065308E0,-1.443265533E1,-5.376782894E0,1.703130012E1
2.005533645E0,7.947958946E0,-1.571924591E1,-4.057472706E0,1.807561419E1
2.013529100E0,6.842120171E0,-1.650331879E1,-2.756006718E0,1.807677273E1
2.021555073E0,4.550297737E0,-1.623678017E1,-1.848515391E0,1.696335017E1
2.029581046E0,3.045886517E0,-1.581918812E1,-1.092321157E0,1.614674280E1
2.037607019E0,-2.038707733E0,-1.530413723E1,1.354454041E0,1.549862869E1
2.045632992E0,-1.427843094E0,-1.542588234E1,1.024811268E0,1.552568259E1
2.053658966E0,-3.836660385E0,-1.465261841E1,-1.151444912E0,1.519029343E1
2.061684939E0,-8.102615356E0,-1.393444920E1,-2.983539581E0,1.639276543E1
2.069710912E0,-1.370650768E1,-1.319307709E1,-3.755634069E0,1.939150389E1
2.077736885E0,-1.985553741E1,-1.203485012E1,-3.079381704E0,2.342141275E1
2.085762858E0,-2.760666656E1,-1.062722969E1,-1.450188756E0,2.961704065E1
2.093788831E0,-3.387424088E1,-8.851054192E0,-5.296534300E-1,3.501550925E1
2.101814804E0,-3.935548401E1,-5.486044407E0,-3.514332771E-1,3.973756799E1
2.109840777E0,-4.165956116E1,3.968979120E-1,-9.874000549E-1,4.167315110E1
2.117866750E0,-4.181430054E1,5.862597466E0,-3.702290773E0,4.238528914E1
2.125892723E0,-3.981515503E1,7.917973518E0,-8.254400253E0,4.142554765E1
2.133918696E0,-3.931662750E1,1.140196323E1,-1.321874142E1,4.301786941E1
2.141944670E0,-3.948160553E1,1.806971359E1,-1.507728767E1,4.596342381E1
2.149970643E0,-3.636879349E1,2.089940834E1,-1.742932320E1,4.542307471E1
2.157996616E0,-3.370148468E1,2.026383018E1,-2.090113449E1,4.453392310E1
2.166022589E0,-3.143158531E1,1.867807198E1,-2.434064293E1,4.392359077E1
2.174048562E0,-2.861371231E1,1.679258919E1,-2.584225655E1,4.205422461E1
2.182074535E0,-2.043058968E1,1.357698059E1,-2.753631592E1,3.687807059E1
2.190100508E0,-1.576988792E1,8.973784447E0,-2.592244148E1,3.164160465E1
2.198126481E0,-1.351909351E1,4.887546539E0,-2.369663239E1,2.771613947E1
2.206152454E0,-1.074739933E1,1.446952343E0,-1.991296577E1,2.267435709E1
2.214147910E0,-7.623416901E0,-1.343196273E0,-1.641096878E1,1.814498713E1
2.222173883E0,-6.857434273E0,-3.764358282E0,-1.324287033E1,1.538078063E1
2.230199856E0,-8.042788506E0,-4.632739067E0,-1.207907104E1,1.523327527E1
2.238225829E0,-7.872979164E0,-4.661991119E0,-1.200277710E1,1.509253525E1
2.246251802E0,-7.570708275E0,-3.869976044E0,-1.306187248E1,1.558540507E1
2.254277775E0,-4.818897247E0,-4.184639454E0,-1.535596657E1,1.662945240E1
2.262303748E0,-2.189047813E0,-6.701896191E0,-1.694221497E1,1.835064007E1
2.270329721E0,-2.274494171E-1,-1.227379227E1,-1.813662720E1,2.190056976E1
2.278355694E0,2.026929855E-1,-1.424821758E1,-1.431647682E1,2.019936379E1
2.286381667E0,-3.300037384E0,-1.266387653E1,-8.278867722E0,1.548559545E1
2.294407640E0,-3.518354416E0,-1.112969208E1,-3.874254227E0,1.229872796E1
2.302433613E0,5.589170456E-1,-1.312817287E1,-3.286354065E0,1.354479362E1
2.310459586E0,5.700283051E0,-1.295619774E1,-2.041952610E0,1.430125369E1
2.318485559E0,6.292485237E0,-1.210415840E1,-5.472083092E-1,1.365303842E1
2.326511533E0,4.179378033E0,-1.193443012E1,2.496176720E0,1.288909311E1
2.334537506E0,1.357944012E0,-9.271512985E0,5.030469894E-1,9.383923553E0
2.342563479E0,-8.757724762E-1,-8.413714409E0,-3.305539131E0,9.082078866E0
2.350589452E0,-4.572454453E0,-6.967614651E0,-7.720003128E0,1.136016910E1
2.358615425E0,-5.276147842E0,-6.539228916E0,-9.599621773E0,1.275742878E1
2.366641398E0,-1.911074638E0,-5.570023537E0,-9.939343452E0,1.155283155E1
2.374667371E0,6.012913704E0,-1.329020500E1,-4.458861351E0,1.525339715E1
2.382693344E0,3.546009064E-1,-1.243076611E1,-8.525758743E0,1.507774021E1
2.390719317E0,-1.569322586E0,-9.242250443E0,-1.394661808E1,1.680446734E1
2.398745290E0,4.179236889E0,-1.448233366E0,-1.223652840E1,1.301138071E1
2.406771263E0,7.949447632E0,2.322230577E0,-1.395136642E1,1.622427495E1
2.414797237E0,9.073494911E0,9.325071335E0,-1.773682213E1,2.199727539E1
2.422823210E0,6.955394268E0,3.573280334E0,-1.014160156E1,1.280616742E1
2.430849183E0,2.335472107E-1,1.428540349E0,-8.368316650E0,8.492584730E0
2.438875156E0,9.899764061E-1,1.272122383E0,-6.875265598E0,7.061701331E0
2.446901129E0,-1.019678116E-1,3.609770536E-1,-4.315147400E0,4.331419969E0
2.454927102E0,-1.182418346E0,-7.840206623E-1,-1.688719273E0,2.205578003E0
2.462953075E0,8.292684555E-1,7.426654696E-1,-2.385168076E0,2.632159744E0
2.470979048E0,6.635059357E0,-3.269004226E-1,-4.635324001E0,8.100438578E0
2.479005021E0,1.400838852E1,-2.436312675E0,-5.443842888E0,1.522517631E1
2.487030994E0,1.592727661E1,-2.780899525E0,-5.642331600E0,1.712446929E1
2.495056968E0,1.623850250E1,-3.897542000E0,-4.040706635E0,1.718159211E1
2.503082941E0,2.156412125E1,-5.451447487E0,-9.785590172E-1,2.226403339E1
2.511108914E0,2.325595474E1,-6.241328239E0,-5.541898727E0,2.470842469E1
2.519134887E0,2.209626770E1,-6.384656906E0,-7.390557766E0,2.415841953E1
2.527160860E0,1.943233871E1,-6.466533661E0,-7.982056618E0,2.198056126E1
2.535186833E0,1.680192375E1,-6.601104736E0,-8.283052444E0,1.986172659E1
2.543212806E0,1.359441566E1,-5.683457851E0,-9.538272858E0,1.755244939E1
2.551208261E0,1.022844887E1,-4.390176773E0,-1.060104084E1,1.537130070E1
2.559234234E0,7.259502411E0,-2.256059170E0,-1.154598999E1,1.382389464E1
2.567351759E0,4.797678947E0,-1.140412331E0,-1.097845554E1,1.203514643E1
2.575377732E0,2.370837212E0,-1.264707088E0,-8.846868515E0,9.245941576E0
2.583403705E0,1.002687931E0,-7.384469509E-1,-6.202118874E0,6.325896419E0
2.591429678E0,1.638682842E0,1.875074625E0,-5.309663773E0,5.864615562E0
2.599455651E0,2.973428249E0,3.326391697E0,-5.190639973E0,6.844625673E0
2.607481624E0,5.046016693E0,3.475076199E0,-5.181186676E0,8.023910171E0
2.615507597E0,7.683314323E0,2.659319639E0,-5.348333359E0,9.731904729E0
2.623533570E0,1.131510735E1,2.280718088E0,-5.112252235E0,1.262412184E1
2.631559543E0,1.218746853E1,1.267145634E0,-5.638100624E0,1.348807717E1
2.639585517E0,1.116640377E1,-1.008859158E0,-5.770867825E0,1.260988840E1
2.647611490E0,9.668201447E0,-2.770043135E0,-5.497138500E0,1.146149161E1
2.655606945E0,7.672464848E0,-4.190608025E0,-4.403472424E0,9.788691528E0
2.663632918E0,7.025627613E0,-5.130084991E0,8.883953094E-1,8.744510370E0
2.671658891E0,3.494211674E0,-5.564926147E0,-1.503078461E0,6.740709392E0
2.679684864E0,2.205696106E-1,-5.880164146E0,-3.246691227E0,6.720564356E0
2.687710837E0,-1.874228477E0,-6.221140862E0,-4.507072449E0,7.907529833E0
2.695736810E0,-3.529218674E0,-6.474830151E0,-5.246622086E0,9.050185260E0
2.703762783E0,-5.327889442E0,-6.748867989E0,-5.806586266E0,1.037545513E1
2.711788756E0,-7.169311523E0,-6.496441364E0,-5.423319817E0,1.109122067E1
2.719784213E0,-9.221726418E0,-6.889834404E0,-5.201061249E0,1.263174946E1
2.727810186E0,-1.072959423E1,-7.869969368E0,-4.976270676E0,1.420647317E1
2.735836159E0,-1.174390411E1,-8.698770523E0,-4.953577995E0,1.543132617E1
2.743862132E0,-1.244093800E1,-9.194421768E0,-4.981277466E0,1.625199849E1
2.751888105E0,-1.293480587E1,-9.280229568E0,-5.223753929E0,1.675468498E1
2.759914078E0,-1.275935745E1,-8.880464554E0,-5.331690788E0,1.643443884E1
2.767940051E0,-1.164393139E1,-8.372891426E0,-5.274415016E0,1.528089993E1
2.775966024E0,-9.457828522E0,-7.429020882E0,-4.667613983E0,1.290067796E1
2.783991997E0,-7.048454285E0,-6.780903339E0,-4.955362320E0,1.096435012E1
2.792017970E0,-5.778472900E0,-6.561393261E0,-6.049419403E0,1.063193800E1
2.800013427E0,-4.458155632E0,-7.487984657E0,-7.517072201E0,1.150875494E1
2.808039400E0,-2.273510456E0,-8.734266281E0,-7.546912193E0,1.176486893E1
2.816095889E0,1.630217552E0,-8.256495476E0,-6.139944077E0,1.041759282E1
2.824121862E0,4.048565388E0,-7.689361572E0,-5.783484459E0,1.043867116E1
2.832147835E0,3.198034763E0,-8.746849060E0,-7.147759438E0,1.173990033E1
2.840265359E0,9.743371010E-1,-1.220254326E1,-9.484188080E0,1.548551640E1
2.848291332E0,-5.027253151E0,-2.496895027E1,-1.089676857E1,2.770309220E1
2.856317305E0,-8.497274399E0,-3.726995087E1,-5.695297241E0,3.864827707E1
2.864312762E0,-8.980903625E0,-5.081874084E1,-1.232505322E0,5.162092715E1
2.872338735E0,-6.718382835E0,-5.753926086E1,2.033185959E0,5.796582660E1
2.880364708E0,-4.228412628E0,-4.760811615E1,-7.129635811E-1,4.780084219E1
2.888390681E0,-1.598417044E0,-3.610905838E1,-4.554565549E-1,3.614728862E1
2.896508205E0,-3.153514862E-1,-1.992779160E1,-3.818284273E-1,1.993394385E1
2.904503661E0,1.667089462E-1,-8.314929962E0,-1.449717164E0,8.442009950E0
2.912621185E0,7.107377052E-1,-2.814556122E0,-1.989647627E0,3.519314127E0
3.008654741E0,2.170879841E-1,1.931269169E-1,4.894752502E-1,5.692198340E-1
3.016680714E0,2.772026062E-1,2.575650215E-1,4.810953140E-1,6.120733015E-1
3.024706687E0,2.338194847E-1,2.411971092E-1,4.031915665E-1,5.247961854E-1
3.032732661E0,4.319763184E-2,1.638240814E-1,1.686935425E-1,2.390855000E-1
3.040758634E0,-2.759475708E-1,8.149743080E-2,-1.072740555E-1,3.070775408E-1
3.048784607E0,-3.083910942E-1,1.758332253E-1,-1.514520645E-1,3.859535178E-1
3.056780063E0,-7.019581795E-1,1.086130142E-1,-3.689632416E-1,8.004223549E-1
3.064806036E0,-1.345318556E0,-3.658347130E-1,-8.122582436E-1,1.613530448E0
3.072832009E0,-1.672423244E0,-7.810399532E-1,-1.125625134E0,2.161956257E0
3.080857982E0,-1.594476581E0,-8.952322006E-1,-1.151456356E0,2.160936834E0
3.088883955E0,-1.241248488E0,-8.589582443E-1,-9.082951546E-1,1.761677372E0
3.096909928E0,-8.921115398E-1,-7.629175186E-1,-3.595905304E-1,1.227685420E0
3.104935901E0,-4.902515411E-1,-4.940340519E-1,4.486045837E-1,8.280472756E-1
3.112961874E0,-1.038551331E-1,-2.246115208E-1,1.189052582E0,1.214529648E0
3.120987847E0,1.582784653E-1,5.914211273E-2,1.918816566E0,1.926241646E0
3.129013820E0,3.909437656E-1,2.780096531E-1,2.366267204E0,2.414404042E0
3.137039794E0,6.623601913E-2,2.255489826E-1,2.406855583E0,2.418307952E0
3.145035250E0,-5.148334503E-1,2.157139778E-2,2.061377525E0,2.124804958E0
3.153061223E0,-1.238279343E-1,5.401475430E-1,8.955659866E-1,1.053152962E0
3.161087196E0,-6.276607513E-1,-2.266268730E-1,5.192432404E-1,8.455361027E-1
3.169113169E0,-1.009166241E0,-8.522251844E-1,-5.952548981E-2,1.322213126E0
3.177139142E0,-1.224673629E0,-1.116421938E0,-6.216497421E-1,1.769935548E0
3.185165115E0,-1.335696220E0,-1.116673827E0,-9.388885498E-1,1.978018336E0
3.193191088E0,-1.112620592E0,-1.244348645E0,-1.083952904E0,1.990296970E0
3.201217061E0,-7.880336642E-1,-1.368418574E0,-1.295374870E0,2.042440331E0
3.209243034E0,-3.964965343E-1,-1.445847631E0,-1.219129562E0,1.932346181E0
3.217269007E0,-2.112768888E-1,-1.365036130E0,-1.004309654E0,1.707805446E0
3.225294980E0,-3.204685450E-1,-1.209077239E0,-7.264318466E-1,1.446468488E0
3.233320954E0,-5.070077181E-1,-1.108304977E0,-5.056753159E-1,1.319509104E0
3.241346927E0,-6.941412091E-1,-1.227883339E0,-6.048812866E-1,1.534734792E0
3.249372900E0,-6.192354560E-1,-1.636664629E0,-9.034318924E-1,1.969343251E0
3.257368355E0,-6.147053242E-1,-2.299228668E0,-1.186840057E0,2.659493265E0
3.265394328E0,-2.364847660E-1,-2.639572144E0,-1.125641823E0,2.879294299E0
3.273420301E0,2.773857117E-2,-2.585214853E0,-6.675271988E-1,2.670149402E0
3.281446274E0,3.063147068E-1,-2.352089167E0,1.438388824E-1,2.376308434E0
3.289472247E0,7.974995375E-1,-1.979138613E0,1.436989784E0,2.572534704E0
3.297498221E0,1.438270092E0,-1.714686394E0,2.653037071E0,3.470933014E0
3.305524194E0,1.275369048E0,-3.587221146E0,3.485484123E0,5.161716897E0
3.313550167E0,5.873025656E-1,-4.600536346E0,3.710085869E0,5.939242050E0
3.321576140E0,8.234066963E-1,-1.091809392E0,3.034114838E0,3.328047353E0
3.329602114E0,1.417195916E0,1.494117975E0,2.395297050E0,3.158841678E0
3.337597569E0,1.903842926E0,2.503647804E0,2.405947685E0,3.959981626E0
3.345623542E0,1.452756166E0,1.697304487E0,1.747054100E0,2.836113720E0
3.353649515E0,7.341392040E-1,6.214811802E-1,6.925296783E-2,9.643625883E-1
3.361675488E0,4.625003338E-1,-9.849745035E-2,-1.454662323E0,1.529591704E0
3.369701461E0,-5.190801620E-1,-1.690644741E0,-2.326141357E0,2.922098128E0
3.377727434E0,-1.208453178E-1,-2.595638275E0,-2.108155727E0,3.346081621E0
3.385753407E0,8.589506149E-3,-1.398345470E0,-1.014768600E0,1.727772886E0
3.393779380E0,1.394848824E-1,2.873999774E-1,3.305683136E-1,4.597066341E-1
3.401805353E0,7.477269173E-1,1.745546818E0,9.338369370E-1,2.116147599E0
3.409800810E0,1.606980681E0,2.926047564E0,5.829715729E-1,3.388804673E0
3.417826783E0,1.970070839E0,3.592983961E0,-2.935695648E-2,4.097752394E0
3.425852756E0,1.761385322E0,3.560775757E0,-8.629064560E-1,4.065244125E0
3.433878729E0,1.529448152E0,3.029860497E0,-1.564195633E0,3.737107739E0
3.441904702E0,1.724658012E0,2.236465693E0,-1.930878162E0,3.421186129E0
3.449930675E0,1.743583441E0,1.340002894E0,-1.903293133E0,2.908301174E0
3.457956648E0,1.758483291E0,8.391525745E-1,-1.472800255E0,2.442453913E0
3.465982621E0,1.827688217E0,6.590245962E-1,-8.644294739E-1,2.126498519E0
3.473978077E0,1.931110501E0,6.415300965E-1,-4.196729660E-1,2.077708842E0
3.482004051E0,2.013390541E0,4.559905529E-1,-8.796691895E-3,2.064399728E0
3.490030024E0,1.831792593E0,7.932782173E-2,-8.327865601E-2,1.835399777E0
3.498055997E0,1.849512339E0,7.482314110E-2,3.675765991E-1,1.887169030E0
3.506081970E0,1.721594691E0,5.673027039E-1,1.485910416E0,2.343853750E0
3.514107943E0,1.335285425E0,1.054975748E0,4.999799728E-1,1.773680064E0
3.522133916E0,7.031612396E-1,1.584560275E-1,-7.632112503E-1,1.049778764E0
3.530159889E0,6.586062908E-1,3.338356614E-1,-8.203144073E-1,1.103686650E0
3.538185862E0,1.474101543E0,1.442723036E0,-1.047815323E0,2.313512928E0
3.546211835E0,1.669652224E0,1.653150797E0,-8.517627716E-1,2.499229066E0
3.554237808E0,1.473247528E0,1.447940946E0,-7.059001923E-2,2.066875471E0
3.562263781E0,1.088842392E0,1.034314275E0,7.416954041E-1,1.674961446E0
3.570289754E0,6.103672385E-1,4.743929505E-1,1.467655182E0,1.658797326E0
3.578315727E0,4.499211311E-1,3.155549169E-1,2.413702965E0,2.475472870E0
3.586341700E0,5.426006317E-1,4.508799314E-1,3.019615173E0,3.100932755E0
3.594367673E0,7.214044333E-1,4.357503057E-1,2.745989799E0,2.872414083E0
3.602393646E0,6.867631078E-1,1.320902556E-1,1.985130310E0,2.104717024E0
3.610419619E0,6.105545163E-1,-1.083280593E-1,1.223150253E0,1.371352737E0
3.618445592E0,2.459742725E-1,7.096758485E-2,3.094129562E-1,4.015919799E-1
3.626441048E0,2.062862515E-1,2.422361970E-1,-2.681512833E-1,4.160979493E-1
3.634467021E0,3.464996815E-1,3.307935596E-1,-7.259511948E-1,8.697652243E-1
3.642492994E0,2.439584732E-1,4.982393980E-1,-1.240069389E0,1.358502972E0
3.650518967E0,1.811293364E-1,7.078714967E-1,-1.646811485E0,1.801632027E0
3.658544940E0,3.538405299E-1,8.084720373E-1,-1.869775295E0,2.067580666E0
3.666570913E0,8.277698755E-1,8.694537878E-1,-1.983031750E0,2.318095722E0
3.674596886E0,1.393841624E0,8.418497443E-1,-2.033819199E0,2.605364849E0
3.682622859E0,2.085589170E0,8.596465588E-1,-1.920097351E0,2.962338305E0
3.690648832E0,2.512826443E0,7.947621346E-1,-1.690786362E0,3.131246094E0
3.698674805E0,2.306665421E0,5.140849352E-1,-1.311665535E0,2.702860551E0
3.706700778E0,2.028333187E0,2.159172893E-1,-8.975515366E-1,2.228531928E0
3.714726751E0,1.774766684E0,-2.877146006E-3,-4.606761932E-1,1.833583272E0
3.722752724E0,1.633828282E0,-2.000765502E-2,-2.023439407E-1,1.646431970E0
3.730748181E0,1.445655823E0,4.920187593E-2,-2.495298386E-1,1.467857869E0
3.738774154E0,1.068589807E0,2.880765796E-1,-6.190519333E-1,1.268107877E0
3.746800127E0,5.897135139E-1,4.274399579E-1,-9.592809677E-1,1.204444653E0
3.754826100E0,3.423758447E-1,4.249997735E-1,-1.246319771E0,1.360573040E0
3.762852073E0,8.086991310E-2,5.948609114E-1,-1.365432739E0,1.491578363E0
3.770878046E0,-2.204906940E-2,9.781072140E-1,-1.113439560E0,1.482203609E0
3.778904019E0,-8.830301166E-1,8.620649576E-1,1.996860504E0,2.347413481E0
3.786929992E0,-7.420503497E-1,4.579594731E-1,-2.947798729E0,3.074066191E0
3.794955965E0,-4.406889677E-1,-5.284182727E-2,-3.790801048E0,3.816696427E0
3.802981938E0,1.125534058E0,-3.919950426E-1,-3.109065533E0,3.329680993E0
3.811007911E0,1.881052256E0,5.315169692E-2,-2.668941021E0,3.265643714E0
3.819003368E0,2.445052385E0,3.611023426E-1,-1.916562557E0,3.127601014E0
3.827029341E0,2.510744810E0,-6.928831339E-3,-9.682731628E-1,2.690992462E0
3.835055314E0,1.751568913E0,-2.831839323E-1,-2.967519760E-1,1.798957624E0
3.843081287E0,9.901597500E-1,-3.200631738E-1,-2.698678970E-1,1.075028115E0
3.851107260E0,4.571478367E-1,-1.526076198E-1,-6.659135818E-1,8.220183262E-1
3.859133233E0,-2.235829830E-1,2.415159047E-1,-1.254340172E0,1.296799348E0
3.867159206E0,-1.531988740E0,5.726298094E-1,-1.642142296E0,2.317655220E0
3.875185179E0,-1.572073936E0,1.053037882E0,-2.524715424E0,3.155074201E0
3.883211152E0,-1.123665810E0,1.401307583E0,-3.279833317E0,3.739464451E0
3.891237125E0,-2.236802578E-1,1.576243639E0,-3.663936138E0,3.994872325E0
3.899263098E0,8.827865124E-1,1.567092896E0,-3.611779690E0,4.034853739E0
3.907289071E0,4.266957760E0,1.850579977E0,-3.587611198E0,5.873885331E0
3.915315044E0,5.853215218E0,2.304681301E0,-4.537621021E0,7.756396639E0
3.923341018E0,5.207912922E0,1.894082546E0,-4.755455971E0,7.302346690E0
3.931366991E0,4.372172832E0,2.020847797E-2,-4.388882160E0,6.195045623E0
3.939392964E0,3.159019470E0,1.857299805E-1,-4.623921394E0,5.603083856E0
3.947418937E0,2.091913462E0,9.485362768E-1,-4.748603821E0,5.274946563E0
3.955444910E0,1.552955151E0,1.618691683E0,-4.634439468E0,5.148772830E0
3.963440366E0,1.297413349E0,1.069905877E0,-4.671133995E0,4.964622119E0
3.971466339E0,-4.122061729E-1,1.609355807E0,-4.311442375E-1,1.716340700E0
3.979492312E0,-1.954334259E0,2.513449192E0,-1.474490643E0,3.508699459E0
3.987518285E0,-2.047445297E0,2.381912470E0,-1.531661510E0,3.494499427E0
3.995544258E0,-1.195631504E0,1.691526651E0,-1.359971046E0,2.477966576E0
4.003570231E0,-1.052413940E0,1.591776133E0,-1.278331757E0,2.296836615E0
4.011596204E0,-1.226365566E0,1.236367941E0,-1.482652664E0,2.287102339E0
4.019622177E0,-1.916330814E0,4.784123898E-1,-2.046261787E0,2.844009407E0
4.027648151E0,-1.989796638E0,8.121557236E-1,-2.010905027E0,2.943234039E0
4.035674124E0,-1.618076324E0,1.113845348E0,-1.246340990E0,2.326411037E0
4.043700097E0,-7.511034012E-1,-6.935319901E-1,4.407577515E-1,1.113288074E0
4.051726070E0,-2.088274956E0,6.698508263E-1,5.778021812E-1,2.267917058E0
4.059752043E0,-4.129407883E0,2.847070217E0,7.947902679E-1,5.078337312E0
4.067778016E0,-5.604207039E0,4.654014587E0,1.809791088E0,7.506152949E0
4.075803989E0,-6.963200569E0,5.807741165E0,3.194132328E0,9.613454163E0
4.083829962E0,-8.169798851E0,6.282668114E0,4.050145149E0,1.107344606E1
4.091825417E0,-9.206275940E0,6.132854462E0,4.219845772E0,1.183953204E1
4.099851390E0,-1.013704109E1,4.954901695E0,4.045992374E0,1.198668875E1
4.107877363E0,-1.143450928E1,3.821689367E0,4.254631996E0,1.278496013E1
4.115903336E0,-1.196208286E1,3.453882694E0,3.631635189E0,1.296956076E1
4.123929310E0,-1.100920105E1,3.849229336E0,2.504956484E0,1.192869990E1
4.131955283E0,-1.085925388E1,4.425598145E0,2.604197979E0,1.201212558E1
4.139981256E0,-9.944609642E0,3.977523804E0,2.337105274E0,1.096257349E1
4.148007229E0,-9.010938644E0,3.152142763E0,1.935046911E0,9.740504392E0
4.156033202E0,-9.106903076E0,2.408477783E0,2.593551159E0,9.770514648E0
4.164059175E0,-8.607025146E0,1.953725576E0,2.938095808E0,9.302168160E0
4.172085148E0,-7.780420303E0,1.796501875E0,2.419681072E0,8.343693162E0
4.180111121E0,-6.675873756E0,1.551202536E0,1.696647882E0,7.060604348E0
4.188137094E0,-5.314340591E0,9.999547005E-1,8.441974521E-1,5.473097356E0
4.196163067E0,-4.093075752E0,4.078562260E-1,2.897241712E-2,4.113448093E0
4.204189040E0,-2.334877968E0,-8.796594143E-1,-3.034767509E-1,2.513474477E0
4.212215014E0,-2.275678635E0,-1.931181908E0,-8.769318461E-1,3.110817621E0
4.220240987E0,-2.633158684E0,-1.079831243E0,-8.820406199E-1,2.979522751E0
4.228236443E0,-1.856700897E0,-2.169582844E-1,-7.403612137E-2,1.870799419E0
4.236262416E0,-8.533687592E-1,2.004015446E-1,1.007623434E0,1.335553819E0
4.244288389E0,6.746788025E-1,-9.437203407E-2,1.808577418E0,1.932627705E0
4.252314362E0,2.528500557E0,-8.046830893E-1,2.125272512E0,3.399648981E0
4.260340335E0,3.987256527E0,-1.175123572E0,2.246843576E0,4.725191645E0
4.268366308E0,5.002588272E0,-1.083505034E0,1.947637558E0,5.476601559E0
4.276392281E0,5.297010899E0,-9.153338671E-1,1.689935923E0,5.634895205E0
4.284418254E0,5.610318661E0,-6.597039700E-1,1.464586258E0,5.835743115E0
4.292444227E0,6.084122658E0,-5.174962282E-1,1.299484491E0,6.242836759E0
4.300470200E0,6.258388042E0,-1.523062438E-1,1.341346860E0,6.402330004E0
4.308465656E0,6.429731369E0,2.863733470E-1,1.532279253E0,6.615990846E0
4.316491629E0,6.568977356E0,6.753823161E-1,1.864536524E0,6.861785571E0
4.324517603E0,6.920218468E0,1.084113121E0,2.356114864E0,7.390264011E0
4.332543576E0,7.318161011E0,1.254135013E0,3.328263521E0,8.136686873E0
4.340569549E0,6.421524048E0,1.307443380E0,7.577457905E0,1.001814592E1
4.348595522E0,7.519844532E0,8.496940732E-1,4.285728455E0,8.696982821E0
4.356621495E0,7.855757713E0,7.413737178E-1,3.848992348E0,8.779368219E0
4.364647468E0,8.421376228E0,7.736316919E-1,3.352762699E0,9.097202938E0
4.372642923E0,8.676549911E0,8.797530532E-1,2.994680405E0,9.220878186E0
4.380668896E0,8.996051788E0,9.988794923E-1,2.820700407E0,9.480667635E0
4.388694870E0,9.408611298E0,1.335040092E0,2.756208181E0,9.894492515E0
4.396720843E0,1.028908253E1,1.044537067E0,3.288474560E0,1.085220447E1
4.404746816E0,1.031117916E1,1.446625710E0,3.636467457E0,1.102891822E1
4.412772789E0,1.021062374E1,2.267436743E0,3.866964817E0,1.115130142E1
4.420798763E0,1.009125137E1,3.573077202E0,4.080052853E0,1.145631120E1
4.428824736E0,1.006496048E1,4.597216606E0,4.155192375E0,1.181962155E1
4.436850709E0,9.857940674E0,5.335151672E0,4.192182064E0,1.196734006E1
4.444876682E0,9.542258263E0,5.870014191E0,4.040192604E0,1.190944649E1
4.452902655E0,9.668857574E0,6.271760941E0,3.799519777E0,1.213499661E1
4.460898110E0,9.952205658E0,6.440339088E0,3.509932518E0,1.236300899E1
4.468924083E0,9.867061615E0,6.232866287E0,3.013409138E0,1.205355390E1
4.476950056E0,9.250024796E0,5.824656487E0,2.493489742E0,1.121191656E1
4.484976029E0,7.990049362E0,5.510591507E0,2.654628992E0,1.006253262E1
4.493002002E0,6.533202648E0,5.089604378E0,3.559452057E0,9.014239209E0
4.501027975E0,5.226093292E0,4.736330032E0,4.412958622E0,8.319800303E0
4.509053948E0,4.418488026E0,4.520855904E0,4.651580334E0,7.848463170E0
4.517049405E0,4.040429115E0,4.060270309E0,4.159546852E0,7.079031886E0
4.525075378E0,3.522699833E0,3.584781885E0,3.357831717E0,6.044427939E0
4.533101351E0,2.594473839E0,2.761251688E0,2.854579926E0,4.743883634E0
4.541127324E0,1.744637966E0,1.534444809E0,2.038573265E0,3.090964811E0
4.549153297E0,5.222349167E-1,3.926644325E-1,1.216198325E0,1.380598794E0
4.557179270E0,-6.381788254E-1,-1.120279074E0,8.145481944E-1,1.525052844E0
4.565205243E0,-2.281245232E0,-2.558336496E0,1.229962111E0,3.641699085E0
4.573231216E0,-3.938429832E0,-3.831644058E0,1.714133263E0,5.755951579E0
4.581257189E0,-6.116353989E0,-4.648840904E0,1.530547261E0,7.833523012E0
4.589283162E0,-7.946504593E0,-4.629240990E0,7.044015527E-1,9.223501989E0
4.597278619E0,-9.575248718E0,-4.706509590E0,1.109802127E-1,1.067000174E1
4.605304592E0,-1.212263203E1,-5.098440170E0,3.252133727E-1,1.315515348E1
4.613330565E0,-1.482545090E1,-5.117696762E0,1.578631878E0,1.576314985E1
4.621356538E0,-1.761023140E1,-4.676712990E0,2.861259222E0,1.844393393E1
4.629382511E0,-1.947079849E1,-4.043809891E0,3.890570164E0,2.026329017E1
4.637408484E0,-2.095797729E1,-2.684706688E0,2.509949207E0,2.127778906E1
4.645434457E0,-2.224421310E1,-1.322123528E0,-2.563110888E-1,2.228494386E1
4.653460430E0,-2.122498131E1,-6.832165718E-1,-3.466002703E0,2.151696519E1
4.661455886E0,-1.995529556E1,-1.436563969E0,-5.702242851E0,2.080368022E1
4.669481859E0,-1.943992233E1,-2.764034748E0,-7.274391174E0,2.093960925E1
4.677507832E0,-1.858211517E1,-4.791401863E0,-8.431927681E0,2.096067605E1
4.685533805E0,-1.723583984E1,-6.355235100E0,-8.411558151E0,2.020439306E1
4.693559778E0,-1.591023064E1,-6.786121368E0,-7.618953228E0,1.890067011E1
4.701585751E0,-1.463722610E1,-6.331910133E0,-6.222817421E0,1.711913931E1
4.709581207E0,-1.351382637E1,-5.274219513E0,-4.604485989E0,1.521979585E1
4.717607180E0,-1.303338528E1,-4.032666683E0,-3.116651535E0,1.399446495E1
4.725633153E0,-1.246279907E1,-3.285887718E0,-2.098209381E0,1.305836519E1
4.733659126E0,-1.081263924E1,-2.939916611E0,-1.208369255E0,1.127015675E1
4.741685100E0,-9.131490707E0,-2.974138975E0,-3.727478981E-1,9.610856683E0
4.749711073E0,-7.644419670E0,-3.346376419E0,9.335656166E-1,8.396840596E0
4.757737046E0,-7.259453773E0,-2.855515242E0,2.233582020E0,8.114340702E0
4.765763019E0,-5.615733147E0,-2.285618305E0,2.150205135E0,6.433031318E0
4.773788992E0,-3.634718895E0,-1.794393539E0,2.289887428E0,4.655600289E0
4.781814965E0,-2.212079048E0,-1.156706572E0,2.368062973E0,3.440782767E0
4.789810421E0,-1.608263016E0,-1.865985394E-1,2.043079853E0,2.606818795E0
4.797836394E0,-9.829940796E-1,6.724698544E-1,1.770947695E0,2.134185747E0
4.805862367E0,-6.041984558E-1,1.396702528E0,2.021193266E0,2.530030819E0
4.813888340E0,-4.408149719E-1,2.213578224E0,2.054174185E0,3.051864672E0
4.821914313E0,2.417125702E-1,2.845667362E0,2.083158970E0,3.534939744E0
4.829940286E0,1.268401623E0,3.370755672E0,2.464255333E0,4.363873374E0
4.837966259E0,2.181877136E0,3.920759916E0,2.808739901E0,5.293577806E0
4.845992233E0,3.172349930E0,4.086625099E0,2.965692997E0,5.963190734E0
4.854018206E0,3.907270908E0,3.886332750E0,2.918579102E0,6.236060629E0
4.862013661E0,4.766690731E0,3.855265141E0,2.566701651E0,6.646229547E0
4.870039634E0,5.668730736E0,3.992391825E0,1.813531160E0,7.166770256E0
4.878065607E0,6.587243080E0,4.092161655E0,1.212491751E0,7.849056928E0
4.886091580E0,7.803883076E0,4.308367729E0,6.214725971E-1,8.935818471E0
4.894117553E0,8.855662346E0,4.692682266E0,7.538795471E-4,1.002217656E1
4.902143526E0,9.160190582E0,4.773212433E0,2.050502300E-1,1.033124843E1
4.910169499E0,9.478048325E0,5.502397537E0,9.037246704E-1,1.099665845E1
4.918195472E0,9.602652550E0,5.536496639E0,9.758599997E-1,1.112726533E1
4.926221445E0,9.965866089E0,5.379467964E0,1.020033479E0,1.137091161E1
4.934216902E0,1.029376125E1,5.092720985E0,1.000017047E0,1.152811181E1
4.942242875E0,1.013321400E1,4.505875587E0,1.072340608E0,1.114158225E1
4.950268848E0,1.043229198E1,3.991634607E0,1.277436495E0,1.124267348E1
4.958294821E0,1.124168015E1,3.551233292E0,1.160067797E0,1.184619718E1
4.966320794E0,1.208761406E1,3.188184261E0,7.583652735E-1,1.252397902E1
4.974346767E0,1.273345470E1,2.908693790E0,4.238326550E-1,1.306832057E1
4.982372740E0,1.281062698E1,2.674412966E0,4.590945244E-1,1.309486221E1
4.990398713E0,1.245174980E1,2.444806099E0,8.347737789E-1,1.271691776E1
4.998394170E0,1.168085098E1,2.339090586E0,1.554858565E0,1.201379247E1
5.006420143E0,1.047457695E1,1.983787298E0,2.659352303E0,1.098746235E1
5.014446116E0,9.591711044E0,1.656120658E0,3.444924831E0,1.032526820E1
5.022472089E0,9.176225662E0,1.493584156E0,3.515571117E0,9.939474398E0
5.030498062E0,8.475005150E0,1.170340896E0,3.355765820E0,9.190025807E0
5.038524035E0,7.922680855E0,1.273497224E0,2.931873083E0,8.543216425E0
5.046550008E0,7.762397289E0,1.845309377E0,2.468774796E0,8.351935546E0
5.054575981E0,7.831565380E0,2.593019724E0,2.325862408E0,8.571277824E0
5.062601954E0,7.473756790E0,3.275267363E0,2.166918039E0,8.442745445E0
5.070597410E0,7.084723473E0,3.682801485E0,2.039440155E0,8.241095170E0
5.078623383E0,6.419830322E0,3.893297672E0,2.061165810E0,7.785909878E0
5.086649356E0,5.356902122E0,3.708369017E0,2.406592369E0,6.945508473E0
5.094675329E0,4.467574596E0,3.554558039E0,2.516004324E0,6.238940886E0
5.102701302E0,3.696302414E0,3.240820408E0,1.990931749E0,5.303713575E0
5.110727275E0,2.180693626E0,2.588959932E0,9.297738075E-1,3.510358608E0
5.118753248E0,-4.326438904E-2,1.287575483E0,5.530571193E-2,1.289488718E0
5.126779221E0,-1.837265015E0,-2.639224529E-1,-3.622738123E-1,1.891147829E0
5.134774677E0,-3.222383499E0,-1.119964838E0,-1.640696287E0,3.785493490E0
5.142800650E0,-4.665962219E0,-1.106526613E0,-2.224240303E0,5.286099649E0
5.150826623E0,-6.745044708E0,-9.049727917E-1,-2.803609610E0,7.360355339E0
5.158852596E0,-8.902814865E0,-1.119532585E0,-3.237977982E0,9.539285463E0
5.166878570E0,-1.085077477E1,-2.060151339E0,-3.119983196E0,1.147683892E1
5.174904543E0,-1.304925346E1,-3.278345346E0,-2.664298773E0,1.371601444E1
5.182930516E0,-1.540719032E1,-4.928823471E0,-1.743486166E0,1.627005097E1
5.190956489E0,-1.802544594E1,-8.286782265E0,-1.717179418E-1,1.983978197E1
5.198982462E0,-2.236103439E1,-1.228836536E1,1.135618448E0,2.554034870E1
5.207008435E0,-2.529330063E1,-1.482694435E1,2.919102907E0,2.946371493E1
5.215003891E0,-2.622221565E1,-1.555709171E1,5.234833717E0,3.093592055E1
5.223029864E0,-2.481480408E1,-1.369679260E1,6.803420544E0,2.914898214E1
5.231055837E0,-2.086223984E1,-1.219128704E1,7.626796246E0,2.533828234E1
5.239081810E0,-1.841304016E1,-1.185425377E1,8.087337494E0,2.334455843E1
5.247107783E0,-1.818394089E1,-1.020368767E1,7.872832298E0,2.228794375E1
5.255133756E0,-1.637763977E1,-8.670354843E0,7.850228310E0,2.012531297E1
5.263159730E0,-1.430125713E1,-7.508478165E0,7.197522163E0,1.768353826E1
5.271185703E0,-1.287106228E1,-6.336439133E0,6.242133141E0,1.564541247E1
5.279211676E0,-1.193323231E1,-4.848419189E0,4.995826721E0,1.381547996E1
5.287237649E0,-1.112153339E1,-3.007878780E0,3.570019484E0,1.206154546E1
5.295263622E0,-1.017170334E1,-9.592022896E-1,1.803342342E0,1.037476079E1
5.303289595E0,-8.832007408E0,8.856604099E-1,1.229045093E-1,8.877153527E0
5.311285050E0,-6.904695511E0,2.669045448E0,-7.817792892E-1,7.443776096E0
5.319311023E0,-4.822698593E0,4.098473072E0,-1.775640726E0,6.573340340E0
5.327336996E0,-2.994624138E0,4.985434055E0,-2.416175604E0,6.297636937E0
5.335362969E0,-1.205090523E0,5.691318035E0,-3.332066536E0,6.704178663E0
5.343388942E0,3.867330551E-1,6.218147755E0,-3.797652721E0,7.296375138E0
5.351414915E0,1.760719299E0,6.530129910E0,-3.807634592E0,7.761495363E0
5.359440888E0,3.372618675E0,6.880209923E0,-3.237813950E0,8.318370302E0
5.367466862E0,4.837858200E0,7.075695038E0,-2.415740252E0,8.905399104E0
5.375492835E0,6.180188179E0,7.318085670E0,-1.679621220E0,9.724722682E0
5.383518808E0,7.372239590E0,7.634225845E0,-1.047727466E0,1.066438248E1
5.391544782E0,8.384057999E0,7.660561085E0,-5.391764641E-1,1.136957941E1
5.399540237E0,9.275107384E0,7.380352974E0,-1.141343117E-1,1.185370211E1
5.407566210E0,1.004243946E1,6.842361450E0,2.327361703E-1,1.215412139E1
5.415592183E0,1.003812027E1,6.183333397E0,6.858510971E-1,1.180965123E1
5.423618156E0,9.224453926E0,5.577096462E0,1.314030409E0,1.085915425E1
5.431644129E0,8.485979080E0,5.089835644E0,1.598670244E0,1.002367270E1
5.439670102E0,8.160381317E0,4.751281738E0,1.725067854E0,9.599081232E0
5.447696075E0,8.162742615E0,4.400328159E0,1.809167147E0,9.448086614E0
5.455722048E0,8.566302299E0,4.219439983E0,1.903745770E0,9.737014780E0
5.463748022E0,9.059517860E0,4.270032406E0,1.815811396E0,1.017866453E1
5.471773995E0,8.975923538E0,4.315467834E0,1.745086074E0,1.011117161E1
5.479799968E0,8.859960556E0,4.313932896E0,1.691985130E0,9.998586488E0
5.487825941E0,8.987265587E0,4.211639404E0,1.432062268E0,1.002794353E1
5.495851914E0,8.871399879E0,4.118853092E0,1.546658993E0,9.902466393E0
5.503877887E0,8.554083824E0,4.137451172E0,1.704587460E0,9.653831917E0
5.511873343E0,8.142806053E0,4.278058529E0,1.664217949E0,9.347550298E0
5.519899316E0,7.762693882E0,4.346377373E0,1.397729754E0,9.005779313E0
5.527925289E0,7.606801987E0,4.511512280E0,1.129340768E0,8.915861713E0
5.535951262E0,7.790690899E0,4.796885490E0,8.662912846E-1,9.189963856E0
5.543977235E0,8.156567574E0,5.168891907E0,6.710937023E-1,9.679741984E0
5.552003208E0,8.567656517E0,5.143810749E0,4.165998697E-1,1.000185396E1
5.560029182E0,9.247057915E0,4.586323738E0,-3.595651090E-1,1.032820084E1
5.568055155E0,9.816322327E0,4.247849464E0,-1.001903296E0,1.074282176E1
5.576081128E0,9.942408562E0,4.225786686E0,-1.414323092E0,1.089536924E1
5.584107101E0,9.666460991E0,4.022150517E0,-1.464340687E0,1.057177641E1
5.592133074E0,9.221145630E0,3.610054016E0,-1.362414122E0,9.995908611E0
5.600159047E0,8.756562233E0,3.601112366E0,-1.121402264E0,9.534303092E0
5.608185020E0,8.406788826E0,3.977538109E0,-4.697341025E-1,9.312118873E0
5.616210993E0,7.955206394E0,3.757217169E0,-5.370703340E-2,8.798003982E0
5.624206449E0,7.596333504E0,3.654926300E0,4.432154894E-1,8.441516980E0
5.632232422E0,7.183400154E0,3.867626905E0,7.960580587E-1,8.197163173E0
5.640258395E0,6.510376453E0,3.975065231E0,1.085402727E0,7.704819546E0
5.648284368E0,5.626936913E0,3.697723389E0,8.760668039E-1,6.789924176E0
5.656310341E0,4.052317619E0,3.033155203E0,2.661257982E-1,5.068740624E0
5.664336315E0,1.838052273E0,2.104428291E0,-4.754442573E-1,2.834272717E0
5.672362288E0,-8.494453430E-1,6.568114758E-1,-1.385796785E0,1.753109077E0
5.680388261E0,-3.214067459E0,-4.933736324E-1,-1.860968113E0,3.746578371E0
5.688414234E0,-5.445611000E0,-1.181129217E0,-2.099248409E0,5.954543582E0
5.696440207E0,-6.989274025E0,-9.610702991E-1,-2.448235512E0,7.467761689E0
5.704466180E0,-8.243203163E0,1.545810699E-2,-2.647649050E0,8.657983763E0
5.712492153E0,-9.508887291E0,6.280221939E-1,-3.483480453E0,1.014632867E1
5.720518126E0,-1.142818356E1,-2.883799076E-1,-4.102565765E0,1.214568188E1
5.728544099E0,-1.394576645E1,-2.128178596E0,-4.104329586E0,1.469214305E1
5.736570072E0,-1.717313766E1,-4.834475517E0,-3.490293026E0,1.817886015E1
5.744596045E0,-2.021827126E1,-7.769434929E0,-1.824004650E0,2.173636595E1
5.752591500E0,-2.257374954E1,-1.023050308E1,6.529576778E-1,2.479241246E1
5.760617474E0,-2.377752686E1,-1.198498535E1,3.161511898E0,2.681428378E1
5.768643447E0,-2.416531181E1,-1.285290527E1,5.273043156E0,2.787408210E1
5.776669420E0,-2.365991211E1,-1.304329014E1,6.470305920E0,2.778099561E1
5.784695393E0,-2.234386826E1,-1.321548271E1,7.066965580E0,2.690426424E1
5.792721366E0,-2.032827759E1,-1.317918777E1,7.429109097E0,2.534011685E1
5.800747339E0,-1.787648773E1,-1.288930130E1,7.536904812E0,2.329179761E1
5.808773312E0,-1.540161228E1,-1.249322414E1,7.402337551E0,2.116801624E1
5.816799285E0,-1.304928589E1,-1.148126984E1,7.028710842E0,1.874849848E1
5.824825258E0,-1.123024082E1,-9.785125732E0,6.397711277E0,1.621103649E1
5.832820714E0,-9.230369568E0,-7.916305542E0,5.372139931E0,1.329388970E1
5.840846687E0,-7.812917709E0,-6.162646294E0,4.268197536E0,1.082762221E1
5.848872660E0,-6.767392159E0,-4.532648087E0,3.281480074E0,8.781264532E0
5.856898634E0,-5.714426041E0,-3.115725517E0,2.167794704E0,6.860156292E0
5.864924607E0,-4.666787148E0,-2.013378859E0,1.281309962E0,5.241598223E0
5.872950580E0,-3.624113083E0,-8.843803406E-1,2.227426171E-1,3.737102955E0
5.880976553E0,-2.928129196E0,2.127010822E-1,-7.025292516E-1,3.018729814E0
5.889002526E0,-1.707451820E0,1.502646804E0,-1.416397572E0,2.679462860E0
5.897028499E0,-8.208751678E-2,3.000033379E0,-2.054047346E0,3.636763552E0
5.905054472E0,1.537987232E0,4.422019005E0,-2.410661221E0,5.266017881E0
5.913080445E0,2.889231682E0,5.322152615E0,-2.687672615E0,6.625447325E0
5.921075901E0,4.372181416E0,6.305560112E0,-2.840277195E0,8.181884453E0
5.929101874E0,6.419680595E0,7.794118881E0,-1.605039835E0,1.022432105E1
5.937127847E0,6.882355690E0,7.920242310E0,-2.470621347E0,1.077965806E1
5.945153820E0,7.113109112E0,7.843964577E0,-2.986223459E0,1.100189220E1
5.953179793E0,8.034677505E0,8.026114464E0,-2.028085709E0,1.153636371E1
5.961205767E0,9.074337006E0,7.525514603E0,-1.089823008E0,1.183911637E1
5.969231740E0,9.191941261E0,7.319961548E0,-5.797832012E-1,1.176476816E1
5.977257713E0,8.154663086E0,7.000434875E0,-1.278355271E-1,1.074806775E1
5.985283686E0,7.632257938E0,6.082113266E0,3.375310004E-1,9.765110864E0
5.993309659E0,7.880188465E0,4.853328705E0,-1.314128041E-1,9.255778686E0
6.001335632E0,9.027962685E0,3.823893070E0,-8.074218035E-1,9.837591088E0
6.009361605E0,1.051422977E1,3.326537132E0,-1.132117748E0,1.108587243E1
6.017357060E0,1.205376339E1,4.002299786E0,-6.791425943E-1,1.271899564E1
6.025383033E0,1.224084091E1,3.300413132E0,-5.870090127E-1,1.269155202E1
6.033409007E0,1.239966583E1,3.158595800E0,-5.787520409E-1,1.280872336E1
6.041434980E0,1.236113358E1,3.542214155E0,-1.893435717E-1,1.286004492E1
6.049460953E0,1.184595013E1,3.948552132E0,6.448568702E-1,1.250333710E1
6.057486927E0,1.112729931E1,4.289541245E0,1.254415035E0,1.199126812E1
6.065512900E0,1.113748360E1,4.601441383E0,1.271045208E0,1.211744031E1
6.073538873E0,1.052608871E1,4.945953369E0,1.374241352E0,1.171108610E1
6.081564846E0,8.546913147E0,4.485021114E0,1.588892937E0,9.782112221E0
6.089590819E0,7.311597347E0,4.296684742E0,1.932739258E0,8.698070854E0
6.097616792E0,6.933249950E0,4.630675793E0,2.317253590E0,8.653483540E0
6.105642765E0,6.653643608E0,4.959069729E0,2.651010275E0,8.711555620E0
6.113668738E0,6.546114922E0,5.056008816E0,2.848994732E0,8.748235062E0
6.121664193E0,8.702884674E0,5.208248138E0,3.715298414E0,1.080136531E1
6.129690166E0,8.286096573E0,5.306581497E0,2.990255117E0,1.028400842E1
6.137716139E0,6.607295990E0,5.522351265E0,1.482497215E0,8.737878563E0
6.145742112E0,4.440288544E0,5.390876770E0,3.396849632E-1,6.992360158E0
6.153768086E0,3.627548218E0,5.147189140E0,-7.081717253E-2,6.297434175E0
6.161794059E0,3.225502968E0,4.779502869E0,-3.364198208E-1,5.775871827E0
6.169820032E0,3.306222916E0,4.643620491E0,-3.335732222E-1,5.710130675E0
6.177846005E0,3.504070759E0,4.435208321E0,-1.441371441E-2,5.652414748E0
6.185871978E0,3.818336487E0,3.905336618E0,-2.231878042E-2,5.461853692E0
6.193897951E0,4.149003983E0,3.656097412E0,-5.377028584E-1,5.556114352E0
6.201923924E0,4.053738594E0,3.594277620E0,-1.325731277E0,5.577561440E0
6.209949897E0,3.056073666E0,2.906141043E0,-1.889624834E0,4.621247020E0
6.217945353E0,5.639057159E-1,1.332114935E0,-2.532976151E0,2.916931270E0
6.225971326E0,-2.741954803E0,-1.004857779E0,-2.602440596E0,3.911617613E0
6.233997299E0,-5.628293991E0,-3.194917917E0,-1.849393368E0,6.730932296E0
6.242023272E0,-7.446826935E0,-4.443665504E0,-9.623293877E-1,8.725105865E0
6.250049245E0,-9.659609795E0,-5.075470924E0,-4.666531086E-2,1.091194960E1
6.258075219E0,-1.265706539E1,-5.229619026E0,1.826681852E0,1.381618566E1
6.266101192E0,-1.475652790E1,-6.070906162E0,3.452405453E0,1.632575023E1
6.274127165E0,-1.805763245E1,-8.559852600E0,4.330986977E0,2.044765547E1
6.282153138E0,-2.047050858E1,-1.156976128E1,5.928948402E0,2.424981498E1
6.290179111E0,-2.181895638E1,-1.325580978E1,8.035490036E0,2.676476136E1
6.298205084E0,-2.215112686E1,-1.340781784E1,1.072226810E1,2.802515002E1
6.306231057E0,-2.231050110E1,-1.300890541E1,1.296318626E1,2.889695966E1
6.314257030E0,-2.228290749E1,-1.317414284E1,1.485265446E1,2.984438557E1
6.322283003E0,-2.157571411E1,-1.330217361E1,1.564039516E1,2.978390880E1
6.330278459E0,-2.010684204E1,-1.271494579E1,1.508456421E1,2.816911466E1
6.338304432E0,-1.835959244E1,-1.135500813E1,1.383456135E1,2.563992847E1
6.346330405E0,-1.614343071E1,-8.905190468E0,1.174262524E1,2.185868294E1
6.354356379E0,-1.412809563E1,-6.434607983E0,9.608530998E0,1.825735835E1
6.362382352E0,-1.233403683E1,-4.334770679E0,7.274082184E0,1.496098168E1
6.370408325E0,-1.062178516E1,-2.316935301E0,5.011201859E0,1.197090863E1
6.378434298E0,-8.779357910E0,-4.380149841E-1,3.015252590E0,9.293047435E0
6.386460271E0,-6.792054176E0,1.252850533E0,1.462206125E0,7.059722455E0
6.394486244E0,-4.591656685E0,2.966218948E0,-1.164191961E-1,5.467661236E0
6.402512217E0,-2.564744949E0,4.287347317E0,-1.465104103E0,5.206322474E0
6.410538190E0,-7.668962479E-1,5.708707809E0,-2.647924423E0,6.339477775E0
6.418564163E0,1.205870628E0,7.010233879E0,-3.814931870E0,8.071629834E0
6.426590136E0,3.202825069E0,7.610195160E0,-4.797064304E0,9.549082927E0
6.434616109E0,4.841890812E0,7.700355053E0,-5.579386711E0,1.067093860E1
6.442642082E0,6.443006992E0,7.709465027E0,-6.205533504E0,1.180918440E1
6.450637538E0,7.761821747E0,7.576956749E0,-6.211615562E0,1.249961273E1
6.458663511E0,8.752524376E0,7.222281933E0,-5.890353203E0,1.278531580E1
6.466689484E0,9.446722031E0,6.921310902E0,-5.433415413E0,1.290996146E1
6.474715457E0,9.653543472E0,6.647423744E0,-4.786383629E0,1.266051390E1
6.482741431E0,9.334451675E0,6.286433220E0,-4.127710342E0,1.198704398E1
6.490767404E0,8.792140007E0,5.740794659E0,-3.250584602E0,1.099203118E1
6.498793377E0,8.835189819E0,5.574660778E0,-2.198771477E0,1.067576779E1
6.506819350E0,9.221444130E0,5.752271652E0,-1.594093561E0,1.098475285E1
6.514845323E0,9.289419174E0,5.938059807E0,-1.381033421E0,1.111130578E1
6.522840778E0,9.179536819E0,5.855024338E0,-1.347118974E0,1.097086759E1
6.530866751E0,9.010125160E0,5.495944023E0,-1.408808827E0,1.064765225E1
6.538892724E0,8.927550316E0,5.265658379E0,-1.230811357E0,1.043758638E1
6.546918697E0,9.022673607E0,5.210110664E0,-1.284313202E0,1.049777846E1
6.554944671E0,8.257438660E0,5.290401459E0,-1.703742266E0,9.953711796E0
6.562970644E0,9.542911530E0,5.122662067E0,-1.289122820E0,1.090736745E1
6.570996617E0,1.020586205E1,4.956950188E0,-9.578005075E-1,1.138632325E1
6.579022590E0,9.827878952E0,4.949625969E0,-6.545698047E-1,1.102335990E1
6.587048563E0,9.020483971E0,4.972830296E0,-2.775666714E-1,1.030413584E1
6.595074536E0,8.433492661E0,4.966521263E0,2.422995567E-1,9.790242131E0
6.603100509E0,7.993648052E0,5.120769501E0,6.072831154E-1,9.512595978E0
6.611095965E0,7.579229832E0,5.357737541E0,8.243699074E-1,9.318243512E0
6.619121938E0,7.370625496E0,5.550344944E0,8.258160949E-1,9.263607365E0
6.627147911E0,7.243309498E0,5.671938419E0,5.564882755E-1,9.216620699E0
6.635173884E0,7.089823723E0,5.645824432E0,2.102700472E-1,9.065602431E0
6.643199857E0,6.867743492E0,5.473562241E0,-3.776712716E-2,8.782209895E0
6.651225831E0,6.711544037E0,5.272115231E0,-1.771662384E-1,8.536475282E0
6.659251804E0,6.691149235E0,5.069591522E0,-3.805144131E-1,8.403393809E0
6.667277777E0,6.628973961E0,4.886096954E0,-5.807341933E-1,8.255573355E0
6.675303750E0,6.644129276E0,4.770655632E0,-8.436094522E-1,8.222851446E0
6.683329723E0,6.829133987E0,4.636160374E0,-1.025891423E0,8.317662366E0
6.691355696E0,7.185861588E0,4.519322395E0,-1.050199986E0,8.553584142E0
6.699381669E0,7.076063156E0,4.666385651E0,-9.402689338E-1,8.528184478E0
6.707377125E0,6.612032890E0,4.804534435E0,-1.070353031E0,8.243068949E0
6.715403098E0,6.078836918E0,4.654579163E0,-1.108670235E0,7.736052943E0
6.723429071E0,4.669017315E0,3.715901375E0,-1.346685290E0,6.117287551E0
6.731455044E0,2.437705994E0,1.823681355E0,-1.511423349E0,3.398915229E0
6.739481017E0,6.483650208E-2,-3.665232658E-1,-1.051496983E0,1.115432195E0
6.747506991E0,-1.443752289E0,-1.994343281E0,-6.937630475E-2,2.463054783E0
6.755532964E0,-2.318945885E0,-2.566395760E0,1.212220073E0,3.665156847E0
6.763558937E0,-3.163842201E0,-2.392494678E0,2.319678307E0,4.595088215E0
6.771584910E0,-4.800759315E0,-2.346545696E0,3.122252464E0,6.188863156E0
6.779610883E0,-6.187566757E0,-2.636191368E0,3.278676271E0,7.482326202E0
6.787636856E0,-7.392253876E0,-3.047963619E0,2.916738033E0,8.511337165E0
6.795662829E0,-8.920334816E0,-3.582574368E0,2.530356884E0,9.940317816E0
6.803688802E0,-1.000205994E1,-4.339342117E0,2.020008326E0,1.108835094E1
6.811714775E0,-1.071444511E1,-5.250349998E0,1.877078056E0,1.207844904E1
6.819740748E0,-1.131269741E1,-6.845383167E0,2.466571808E0,1.345066429E1
6.827766721E0,-1.157026958E1,-8.723976135E0,3.587347507E0,1.492809298E1
6.835792694E0,-1.163918495E1,-1.037734795E1,4.733481884E0,1.629619058E1
6.843788149E0,-1.174123096E1,-1.162771988E1,5.477359295E0,1.740867137E1
6.851814123E0,-1.202516651E1,-1.270152187E1,5.718979359E0,1.840217412E1
6.859840096E0,-1.188369751E1,-1.358508110E1,5.796054363E0,1.895708156E1
6.867866069E0,-1.138102722E1,-1.383263016E1,5.750361443E0,1.881318937E1
6.875892042E0,-1.091450024E1,-1.359968185E1,5.599908829E0,1.831492945E1
6.883918015E0,-1.053417969E1,-1.307864189E1,5.517135143E0,1.767649840E1
6.891943988E0,-1.037231731E1,-1.218687153E1,5.519052505E0,1.692822332E1
6.899969961E0,-1.067139816E1,-1.119962883E1,5.406752586E0,1.638729380E1
6.907995934E0,-1.080342865E1,-9.855637550E0,5.202815056E0,1.552149950E1
6.916021907E0,-1.086795807E1,-8.554738998E0,4.848193169E0,1.465609255E1
6.924047880E0,-1.073357201E1,-7.261804104E0,4.478514194E0,1.371132584E1
6.932043336E0,-1.048720169E1,-5.990680218E0,3.889768839E0,1.268857559E1
6.940069309E0,-1.000260544E1,-5.055077076E0,3.457167625E0,1.172850919E1
6.948095283E0,-9.450113297E0,-4.551979065E0,3.373199940E0,1.101833166E1
6.956121256E0,-8.710006714E0,-3.629639149E0,2.997194052E0,9.900589351E0
6.964147229E0,-7.803974152E0,-2.701560497E0,2.488958120E0,8.625274152E0
6.972173202E0,-7.074842930E0,-1.857820988E0,1.857342362E0,7.546828602E0
6.980199175E0,-6.277302265E0,-9.201898575E-1,1.311430931E0,6.478512498E0
6.988225148E0,-5.424961567E0,2.564363480E-1,7.939180732E-1,5.488740612E0
6.996251121E0,-4.701235771E0,1.311458111E0,4.124298692E-1,4.898126024E0
7.004277094E0,-3.791311741E0,2.509012222E0,-8.867543936E-2,4.547202479E0
7.012303067E0,-2.624143600E0,3.552828312E0,-5.187736750E-1,4.447228887E0
7.020329040E0,-1.099264145E0,4.548682690E0,-7.492127419E-1,4.739220991E0
7.028355013E0,5.790457726E-1,5.500127316E0,-8.700718880E-1,5.598546203E0
7.036380986E0,2.154982567E0,6.353795528E0,-9.412375093E-1,6.774997825E0
7.044376443E0,3.416186810E0,6.909918308E0,-1.036034107E0,7.777574816E0
7.052402416E0,4.707213879E0,7.433674812E0,-1.203977823E0,8.880706408E0
7.060428389E0,5.816920280E0,7.634768963E0,-1.373521805E0,9.696020875E0
7.068454362E0,6.823070049E0,7.612156868E0,-1.621648550E0,1.035031213E1
7.076480335E0,7.678396225E0,7.452602863E0,-1.895520926E0,1.086701696E1
7.084506308E0,8.576855659E0,7.319015026E0,-2.114932299E0,1.147185131E1
7.092532281E0,9.327264786E0,7.319224834E0,-2.261946678E0,1.207001754E1
7.100558254E0,1.000820541E1,7.430377960E0,-2.379062653E0,1.268994213E1
7.108584227E0,1.038307381E1,7.516161442E0,-2.577092648E0,1.307449085E1
7.116610200E0,1.043723488E1,7.462138653E0,-2.786055088E0,1.312941309E1
7.124636173E0,1.019787312E1,7.093332291E0,-3.045717955E0,1.279016720E1
7.132631629E0,9.712316513E0,6.561707020E0,-3.132734060E0,1.213256419E1
7.140657602E0,9.180047989E0,6.170580387E0,-3.063668013E0,1.147760450E1
7.148683576E0,8.652147293E0,5.923578739E0,-2.878886700E0,1.087365746E1
7.156709549E0,8.195562363E0,5.838921547E0,-2.596455574E0,1.039239283E1
7.164735522E0,7.861915112E0,5.845110893E0,-2.294438362E0,1.006178304E1
7.172761495E0,7.534823895E0,5.825929642E0,-1.848326564E0,9.702130611E0
7.180787468E0,7.232315063E0,5.762913704E0,-1.397094488E0,9.352509211E0
7.188813441E0,7.028626919E0,5.771103859E0,-1.039129138E0,9.153525303E0
7.196839414E0,6.787635326E0,5.797254086E0,-6.189227700E-1,8.947804963E0
7.204865387E0,6.473628044E0,5.814558983E0,-1.853466332E-1,8.703522827E0
7.212891360E0,6.146158218E0,5.803921223E0,2.351362109E-1,8.456716351E0
7.220917333E0,5.816166878E0,5.825810432E0,6.365910769E-1,8.256701069E0
7.228943306E0,5.528133392E0,5.801812172E0,9.611608982E-1,8.071252292E0
7.236938761E0,5.306938171E0,5.716339111E0,1.211108923E0,7.893472646E0
7.244964735E0,5.244322777E0,5.633251190E0,1.311565399E0,7.807473609E0
7.252990708E0,5.445977688E0,5.585811615E0,1.225878596E0,7.897008466E0
7.261016681E0,5.441237926E0,5.463359833E0,1.001222849E0,7.775462560E0
7.269042654E0,5.259891510E0,5.216825962E0,1.990612596E-1,7.410894494E0
7.277068627E0,5.379081726E0,4.879380226E0,-1.288790822E0,7.375896785E0
7.285094600E0,5.989854336E0,4.207813740E0,-4.434280396E0,8.558439931E0
7.293120573E0,4.399480820E0,3.250171661E0,-4.855081081E0,7.313744569E0
7.301146546E0,2.578156471E0,2.394482136E0,-2.935789108E0,4.582498574E0
7.309172519E0,2.276694775E0,1.544289589E0,-2.367748022E0,3.629655649E0
7.317198492E0,1.890494347E0,2.768812180E-1,-2.066375017E0,2.814345003E0
7.325224465E0,9.016752243E-1,-1.054804802E0,-1.525978565E0,2.062581383E0
7.333250438E0,-1.030053139E0,-2.553408623E0,-1.102121830E0,2.965733904E0
7.341276411E0,-3.335260868E0,-3.801902771E0,-8.083850145E-1,5.121710268E0
7.349302384E0,-6.097072601E0,-5.267616749E0,-7.553887367E-1,8.092755567E0
7.357328357E0,-9.059957504E0,-7.081819534E0,-9.159387946E-1,1.153576793E1
7.365354330E0,-1.138855171E1,-8.856311798E0,-8.207290173E-1,1.445015449E1
7.373380303E0,-1.296295547E1,-9.979162216E0,-5.527572632E-1,1.636848905E1
7.381406276E0,-1.452986145E1,-1.065283012E1,-4.444646835E-2,1.801670444E1
7.389432250E0,-1.559672451E1,-1.108120728E1,4.466291070E-1,1.913767091E1
7.397458223E0,-1.677287292E1,-1.168318176E1,9.757318497E-1,2.046406741E1
7.405484196E0,-1.786649895E1,-1.221792030E1,1.736674190E0,2.171417506E1
7.413510170E0,-1.887701416E1,-1.270112801E1,2.908417225E0,2.293728857E1
7.421536143E0,-1.958409500E1,-1.315878582E1,4.133392811E0,2.395360844E1
7.429562116E0,-2.000532341E1,-1.378939056E1,5.431354046E0,2.489698503E1
7.437588089E0,-2.007041168E1,-1.423127079E1,6.512098312E0,2.545108874E1
7.445614062E0,-1.931827927E1,-1.381334686E1,7.220152378E0,2.482206812E1
7.453640035E0,-1.789130592E1,-1.310877323E1,7.281828880E0,2.334445962E1
7.461666008E0,-1.633281326E1,-1.175062370E1,6.809440613E0,2.124162018E1
7.469691981E0,-1.463017464E1,-1.003291225E1,6.040184975E0,1.873993524E1
7.477717954E0,-1.255735970E1,-7.875921726E0,4.825723648E0,1.558861874E1
7.485743927E0,-1.053089333E1,-5.782834053E0,3.321452618E0,1.246486789E1
7.493769900E0,-8.784155846E0,-3.780626774E0,1.737880588E0,9.719812841E0
7.501795873E0,-7.365870476E0,-1.988877296E0,3.608680665E-1,7.638187385E0
7.509821846E0,-5.931561470E0,-3.786640167E-1,-8.522218466E-1,6.004422536E0
7.517847819E0,-4.487583160E0,9.462852478E-1,-1.906360388E0,4.966695916E0
7.525873792E0,-2.696459293E0,2.395761013E0,-2.938366413E0,4.652371517E0
7.533899765E0,-1.002716541E0,3.717471123E0,-3.468011141E0,5.181904407E0
7.541925738E0,5.988779068E-1,4.707683086E0,-3.429469585E0,5.855100036E0
7.549951711E0,1.941301823E0,5.346619129E0,-3.294982910E0,6.573575987E0
7.557977684E0,2.952605724E0,5.879180908E0,-2.911216497E0,7.194291502E0
7.566003657E0,3.711006880E0,6.291978836E0,-2.326938391E0,7.666499332E0
7.574029630E0,4.707508087E0,6.865219593E0,-1.463580370E0,8.451860147E0
7.582055603E0,5.820359707E0,7.517741680E0,-4.724228978E-1,9.519254723E0
7.590081577E0,6.896202087E0,7.990058422E0,4.629267156E-1,1.056470246E1
7.598107550E0,7.984602451E0,8.281565666E0,1.248878956E0,1.157142622E1
7.606133523E0,9.033481598E0,8.372868538E0,1.898921609E0,1.246252866E1
7.614159496E0,9.692045212E0,8.253656387E0,2.335374355E0,1.294266424E1
7.622185469E0,1.003404713E1,7.800578117E0,2.735528469E0,1.300054755E1
7.630211442E0,1.009647179E1,7.142299652E0,2.970160246E0,1.271900306E1
7.638237415E0,1.010991001E1,6.489318848E0,2.902971268E0,1.235915781E1
7.646263388E0,1.017095184E1,5.939964294E0,2.624628305E0,1.206731581E1
7.654289361E0,1.029169846E1,5.592743874E0,2.075023413E0,1.189552703E1
7.662315334E0,1.038543987E1,5.388466835E0,1.492747307E0,1.179496633E1
7.670341307E0,1.050826740E1,5.404834270E0,7.985550761E-1,1.184371595E1
7.678367280E0,1.054441643E1,5.644699574E0,7.104045153E-2,1.196045141E1
7.686393253E0,1.037180614E1,5.994515896E0,-6.652368307E-1,1.199796331E1
7.694419226E0,9.793542862E0,6.339505196E0,-1.048150063E0,1.171330126E1
7.702445199E0,9.104993820E0,6.677350521E0,-1.017370343E0,1.133679694E1
7.710471172E0,8.581830978E0,6.949184418E0,-9.006682038E-1,1.107926849E1
7.718497145E0,7.848222733E0,7.132835865E0,-6.443179250E-1,1.062483379E1
7.726523118E0,7.047252655E0,7.214124680E0,-3.521224260E-1,1.009115232E1
7.734549091E0,6.429898739E0,7.236524582E0,-1.009994745E-2,9.680443576E0
7.742575064E0,5.959599972E0,7.145375729E0,4.399790168E-1,9.314870244E0
7.750601037E0,5.794195175E0,7.018066883E0,8.506377935E-1,9.140544030E0
7.758627011E0,5.624588013E0,6.894198895E0,1.242387772E0,8.983846397E0
7.766652984E0,5.335562706E0,6.770068169E0,1.662341714E0,8.778691951E0
7.774678957E0,5.105233669E0,6.690862656E0,1.999424934E0,8.650361493E0
7.782704930E0,5.007427216E0,6.602388382E0,2.216955423E0,8.577922302E0
7.790730903E0,4.933063030E0,6.449267864E0,2.322823524E0,8.445334568E0
7.798756876E0,4.794004440E0,6.276793957E0,2.212978363E0,8.202310296E0
7.806782849E0,4.659532547E0,6.104045868E0,2.058804274E0,7.950427319E0
7.814808822E0,4.479375839E0,5.932987690E0,1.768581390E0,7.641533287E0
7.822834795E0,4.299250603E0,5.758100033E0,1.114049673E0,7.271889604E0
7.830860768E0,3.503933907E0,5.178599358E0,5.537351370E-1,6.277106557E0
7.838886741E0,2.146678448E0,3.828847408E0,2.414285541E-1,4.396201608E0
7.846912714E0,8.706951141E-1,2.296216011E0,2.262568474E-2,2.455856240E0
7.854938687E0,-2.444887161E-2,6.406731606E-1,-1.591746807E-1,6.606030767E-1
7.862964660E0,-1.096541882E0,-5.235509872E-1,-2.995247245E-1,1.251489031E0
7.870990633E0,-2.459413528E0,-1.203602314E0,-6.332505941E-1,2.810405620E0
7.879016606E0,-4.110071659E0,-1.680998325E0,-1.449907064E0,4.671260527E0
7.887042579E0,-5.742572308E0,-2.272865295E0,-2.355200052E0,6.609842710E0
7.895068552E0,-7.408310890E0,-3.206043243E0,-3.380072117E0,8.751381093E0
7.903094525E0,-8.266464233E0,-4.410905838E0,-4.326188564E0,1.032019519E1
7.911120498E0,-9.383333206E0,-6.003839493E0,-5.234528065E0,1.230826205E1
7.919146471E0,-1.099489784E1,-8.001728058E0,-5.354934692E0,1.461474447E1
7.927172445E0,-1.337016392E1,-1.064458847E1,-4.206744194E0,1.760014897E1
7.935198418E0,-1.567436886E1,-1.331630135E1,-1.942351699E0,2.065871368E1
7.943224391E0,-1.691609192E1,-1.470091438E1,4.008200765E-1,2.241498843E1
7.951250364E0,-1.734548378E1,-1.495086193E1,2.079714298E0,2.299389683E1
7.959276337E0,-1.701820755E1,-1.440958786E1,3.674378872E0,2.259992634E1
7.967302310E0,-1.617668533E1,-1.333771610E1,5.103950500E0,2.157846449E1
7.975328283E0,-1.535253716E1,-1.317578793E1,5.791508198E0,2.104384356E1
7.983354256E0,-1.463427734E1,-1.345830250E1,5.530539989E0,2.063673550E1
7.991410746E0,-1.365744209E1,-1.341999531E1,4.714117050E0,1.971915054E1
7.999406202E0,-1.302058601E1,-1.288608837E1,4.012616158E0,1.875334696E1
8.007432175E0,-1.234119606E1,-1.201486397E1,3.416210651E0,1.755940123E1
8.015458148E0,-1.156663322E1,-1.078436279E1,2.638167143E0,1.603276055E1
8.023484122E0,-1.052758503E1,-9.433347702E0,2.172708273E0,1.430170468E1
8.031510095E0,-9.189118385E0,-7.842401505E0,1.759378195E0,1.220813539E1
8.039536068E0,-7.638038158E0,-6.483240128E0,1.269302249E0,1.009867108E1
8.047562041E0,-6.326521873E0,-5.139848709E0,6.922848821E-1,8.180597908E0
8.055588014E0,-4.859726906E0,-3.928906918E0,7.759761810E-2,6.249742119E0
8.063613987E0,-3.707683086E0,-2.815433025E0,-4.358791113E-1,4.675849398E0
8.071639960E0,-2.913241863E0,-1.636330128E0,-8.424451351E-1,3.445906012E0
8.079665933E0,-2.278889656E0,-3.691287041E-1,-1.092598677E0,2.554088082E0
8.087691906E0,-1.827393055E0,6.928186417E-1,-1.307896852E0,2.351586108E0
8.095717879E0,-1.331217766E0,1.800367355E0,-1.426936150E0,2.655110192E0
8.103743853E0,-4.626979828E-1,3.034878731E0,-1.430427551E0,3.386842381E0
8.111769826E0,5.118775368E-1,4.263214111E0,-1.396662951E0,4.515271926E0
8.119795799E0,1.285215378E0,5.497914314E0,-1.150299311E0,5.762120172E0
8.127821772E0,2.026942253E0,6.832653046E0,-8.022469282E-1,7.171976204E0
8.135847745E0,2.769205570E0,8.062732697E0,-6.070697904E-1,8.546618732E0
8.143904234E0,3.626197100E0,9.211111069E0,-3.657820821E-1,9.905941099E0
8.151930207E0,4.507368088E0,9.993165970E0,-1.208580732E-1,1.096331792E1
8.159956180E0,5.446585655E0,1.026537323E1,2.837914228E-2,1.162084284E1
8.167982153E0,6.209886551E0,1.016152477E1,8.669108152E-2,1.190910542E1
8.176008127E0,6.597527504E0,9.699246407E0,1.233810186E-2,1.173042635E1
8.184003583E0,6.865858078E0,9.089135170E0,-2.539075613E-1,1.139371995E1
8.192029556E0,7.214175701E0,8.316316605E0,-5.462006330E-1,1.102287567E1
8.200055529E0,7.460879803E0,7.735267639E0,-6.780851483E-1,1.076842107E1
8.208081502E0,7.585634708E0,7.316331863E0,-7.404834032E-1,1.056498375E1
8.216107475E0,7.680507183E0,7.113919258E0,-7.364122272E-1,1.049477683E1
8.224133448E0,7.806901455E0,6.942543030E0,-6.671856642E-1,1.046860787E1
8.232159421E0,7.852835178E0,6.775448799E0,-6.537953019E-1,1.039236138E1
8.240185394E0,7.818441391E0,6.624613762E0,-6.420966983E-1,1.026770770E1
8.248211367E0,7.767153740E0,6.498434544E0,-6.609568596E-1,1.014865472E1
8.256237340E0,7.797670841E0,6.461027145E0,-6.351093650E-1,1.014652188E1
8.264263313E0,7.863151550E0,6.458421230E0,-5.931599140E-1,1.019275212E1
8.272289287E0,7.975949764E0,6.406400681E0,-5.599555969E-1,1.024554999E1
8.280315260E0,7.910819054E0,6.312271595E0,-4.552794397E-1,1.013080007E1
8.288341233E0,7.691959858E0,6.168342590E0,-2.308890820E-1,9.862454387E0
8.296367206E0,7.329360962E0,6.052975655E0,3.665712476E-2,9.505755632E0
8.304393179E0,6.995868683E0,5.941716671E0,2.626315355E-1,9.182328188E0
8.312419152E0,6.648735523E0,5.779215813E0,4.822948575E-1,8.822563562E0
8.320445125E0,6.306599617E0,5.480091572E0,7.491109967E-1,8.388430702E0
8.328471098E0,6.042056084E0,5.163142681E0,8.604489565E-1,7.994051318E0
8.336497071E0,5.901083469E0,4.865906715E0,8.340402842E-1,7.693858425E0
8.344492527E0,6.084413528E0,4.634123325E0,5.910574198E-1,7.671019219E0
8.352518500E0,5.962261200E0,4.496256828E0,4.029331803E-1,7.478451660E0
8.360544473E0,5.083493233E0,4.438006401E0,9.952713549E-2,6.748904349E0
8.368570447E0,3.916297913E0,4.077402592E0,-5.261527300E-1,5.677978331E0
8.376596420E0,2.473073483E0,3.243111372E0,-1.293801785E0,4.278759970E0
8.384622393E0,6.660041809E-1,1.579125404E0,-2.384849310E0,2.936784780E0
8.392648366E0,1.869497299E-1,-4.799003601E-1,-3.499578953E0,3.537274007E0
8.400674339E0,1.720372677E0,-2.224860668E0,-4.893352509E0,5.643986704E0
8.408700312E0,4.304846287E0,-3.104259968E0,-6.344287872E0,8.271524654E0
8.416726285E0,6.261787891E0,-3.016758919E0,-7.130838394E0,9.957895268E0
8.424752258E0,6.641069412E0,-2.322832108E0,-7.166075230E0,1.004250896E1
8.432778231E0,4.825462341E0,-1.418697834E0,-6.304024220E0,8.064645790E0
8.440804204E0,5.935978889E-1,-1.753349781E0,-4.053285599E0,4.455975545E0
8.448830177E0,-4.122013092E0,-2.715341568E0,-1.197387218E0,5.079154252E0
8.456856150E0,-8.178694725E0,-3.653876781E0,1.720093012E0,9.121435354E0
8.464851605E0,-1.135006809E1,-4.860971451E0,4.283981800E0,1.306926123E1
8.472877579E0,-1.321859074E1,-6.074000835E0,5.729214668E0,1.563484979E1
8.480903552E0,-1.439038467E1,-7.231763363E0,6.595773220E0,1.740361447E1
8.488929525E0,-1.479129791E1,-7.752510548E0,6.591064930E0,1.795344119E1
8.496955498E0,-1.494728279E1,-8.002009392E0,5.886902809E0,1.794739652E1
8.504981471E0,-1.502027416E1,-8.795157433E0,4.684002876E0,1.802507457E1
8.513007444E0,-1.500247192E1,-9.952208519E0,3.614848375E0,1.836267265E1
8.521033417E0,-1.469343185E1,-1.111455727E1,3.020722151E0,1.866963002E1
8.529059390E0,-1.417620659E1,-1.177632427E1,2.987211227E0,1.867003154E1
8.537085363E0,-1.371632385E1,-1.206062126E1,3.688102245E0,1.863325585E1
8.545111336E0,-1.375139236E1,-1.220916367E1,4.750821114E0,1.899301900E1
8.553137309E0,-1.368098259E1,-1.215347481E1,5.672336102E0,1.915859158E1
8.561163282E0,-1.322236443E1,-1.171215916E1,6.475985050E0,1.881339883E1
8.569189256E0,-1.269590664E1,-1.060367775E1,7.297265530E0,1.807966016E1
8.577215229E0,-1.197410202E1,-8.856383324E0,7.945036411E0,1.688011399E1
8.585241202E0,-1.131382084E1,-7.134359360E0,8.074005127E0,1.562341782E1
8.593267175E0,-1.057129192E1,-5.886319160E0,7.434783459E0,1.420130175E1
8.601293148E0,-9.390662193E0,-4.965742111E0,6.234572411E0,1.231718411E1
8.609319121E0,-8.200616837E0,-4.263961315E0,4.815351486E0,1.042204838E1
8.617345094E0,-6.946947575E0,-3.379247665E0,3.083974361E0,8.318070284E0
8.625371067E0,-5.860356331E0,-2.398962975E0,1.846535087E0,6.596096687E0
8.633397040E0,-4.905637264E0,-9.704484940E-1,9.462082982E-1,5.089435862E0
8.641423014E0,-4.134838104E0,6.511173248E-1,1.625906229E-1,4.188946840E0
8.649448987E0,-3.277035236E0,2.192195415E0,-6.478998661E-1,3.995554394E0
8.657474960E0,-2.347925663E0,3.603198051E0,-1.479042649E0,4.547896027E0
8.665500933E0,-9.663844109E-1,5.256953716E0,-2.346676111E0,5.837495180E0
8.673526906E0,2.462558746E-1,6.798065186E0,-3.129485130E0,7.487857464E0
8.681552879E0,1.346282482E0,8.072302818E0,-3.620962381E0,8.949073577E0
8.689578852E0,2.417039871E0,8.999153137E0,-3.954125166E0,1.012234878E1
8.697604825E0,3.417308569E0,9.799566269E0,-4.095377445E0,1.115713285E1
8.705600280E0,4.249115467E0,1.025779533E1,-3.977720499E0,1.179404967E1
8.713626253E0,5.141954422E0,1.038679886E1,-3.672522545E0,1.215782496E1
8.721652226E0,5.808342457E0,1.004025269E1,-3.331377983E0,1.206820597E1
8.729678199E0,6.268248081E0,9.260276794E0,-3.158320904E0,1.161975263E1
8.737704173E0,6.675664902E0,8.311812401E0,-3.159868717E0,1.111915004E1
8.745730146E0,7.107142925E0,7.455933094E0,-3.051436901E0,1.074307619E1
8.753756119E0,7.500685215E0,6.960644245E0,-2.910140514E0,1.063859788E1
8.761782092E0,7.873740196E0,6.612618446E0,-2.636718512E0,1.061483829E1
8.769808065E0,8.046287537E0,6.357473373E0,-2.254616261E0,1.049969072E1
8.777834038E0,8.134833336E0,6.162750244E0,-1.864676356E0,1.037458538E1
8.785860011E0,8.161413193E0,6.008875847E0,-1.564671516E0,1.025492327E1
8.793885984E0,8.246067047E0,5.924319744E0,-1.416412234E0,1.025189786E1
8.801911957E0,8.323300362E0,5.862276077E0,-1.204380512E0,1.025154340E1
8.809937930E0,8.441456795E0,5.903689861E0,-7.935697436E-1,1.033157779E1
8.817963903E0,8.423487663E0,6.117832184E0,-2.498690784E-1,1.041371450E1
8.825989876E0,8.304338455E0,6.356952667E0,2.727957964E-1,1.046170645E1
8.834046367E0,8.148524284E0,6.439232349E0,7.278332710E-1,1.041114319E1
8.842072340E0,7.989815235E0,6.304513454E0,1.007407188E0,1.022736069E1
8.850098313E0,7.797139645E0,6.132315159E0,1.194057226E0,9.991318657E0
8.858124286E0,7.555995464E0,5.946702957E0,1.462411284E0,9.725995593E0
8.866150259E0,7.268382549E0,5.800811768E0,1.698829293E0,9.453296939E0
8.874176232E0,6.789943695E0,5.626058578E0,1.738225460E0,8.987619165E0
8.882171688E0,6.297795773E0,5.548992634E0,1.546926618E0,8.535018032E0
8.890228178E0,6.004709244E0,5.631850243E0,1.189586878E0,8.318015821E0
8.898223634E0,5.961353302E0,5.775650978E0,7.356301546E-1,8.332888403E0
8.906280124E0,6.099700451E0,6.002720356E0,5.636895075E-2,8.558164214E0
8.914275581E0,6.317435741E0,6.257260799E0,-7.417132854E-1,8.922636699E0
8.922301554E0,6.534975052E0,6.413063526E0,-1.451435089E0,9.270380064E0
8.930327527E0,6.529711723E0,6.369536400E0,-2.077510118E0,9.355435716E0
8.938384016E0,6.175585747E0,5.989710808E0,-2.817941427E0,9.052916037E0
8.946409989E0,5.209697723E0,5.041310787E0,-3.396148205E0,8.005597258E0
8.954435962E0,3.502262115E0,3.400496483E0,-3.806230068E0,6.190040677E0
8.962461935E0,1.552620411E0,1.425043583E0,-3.832178593E0,4.373439392E0
8.970487908E0,-4.540262222E-1,-4.981365204E-1,-3.389475346E0,3.455838961E0
8.978513881E0,-2.216081619E0,-1.866146088E0,-2.563154936E0,3.868240193E0
8.986539855E0,-3.442496300E0,-2.400134563E0,-1.700723767E0,4.528121910E0
8.994565828E0,-4.423877716E0,-2.805092335E0,-7.459247112E-1,5.291090694E0
9.002591801E0,-5.919701099E0,-3.793350220E0,1.383241862E-1,7.032176091E0
9.010617774E0,-7.736337662E0,-5.319046021E0,7.053209543E-1,9.414916284E0
9.018643747E0,-1.010332108E1,-7.061027527E0,6.906120181E-1,1.234553164E1
9.026669720E0,-1.260332108E1,-8.770723343E0,4.117214382E-1,1.536029963E1
9.034695693E0,-1.429752541E1,-1.000203896E1,1.238608837E0,1.749268898E1
9.042721666E0,-1.597498226E1,-1.151555443E1,1.044940472E0,1.972054646E1
9.050747639E0,-1.692836761E1,-1.313074493E1,1.615575790E0,2.148478945E1
9.058773612E0,-1.729953575E1,-1.379565239E1,2.933189392E0,2.232033965E1
9.066769068E0,-1.756636238E1,-1.346747208E1,4.448576927E0,2.257741633E1
9.074795041E0,-1.772722626E1,-1.308133316E1,5.473234653E0,2.270092786E1
9.082821015E0,-1.707363129E1,-1.297163391E1,5.932217598E0,2.224777241E1
9.090846988E0,-1.589941120E1,-1.312912941E1,5.935448647E0,2.145681398E1
9.098872961E0,-1.452211952E1,-1.335719681E1,5.869633198E0,2.058541367E1
9.106898934E0,-1.341356564E1,-1.326656723E1,5.769821167E0,1.972856775E1
9.114924907E0,-1.250810051E1,-1.238882828E1,5.291975975E0,1.838316225E1
9.122950880E0,-1.175375366E1,-1.083318329E1,4.631563187E0,1.664211413E1
9.130976853E0,-1.095104980E1,-9.257447243E0,3.975589037E0,1.488056214E1
9.139002826E0,-1.020059872E1,-7.416144371E0,3.354223251E0,1.304998947E1
9.146998282E0,-9.368956566E0,-5.467584610E0,2.696109533E0,1.117769364E1
9.155024255E0,-8.489820480E0,-3.682915211E0,2.224084854E0,9.517744989E0
9.163050228E0,-7.214076519E0,-2.171700954E0,1.940316439E0,7.779718050E0
9.171076201E0,-5.478212833E0,-8.274378777E-1,1.465744257E0,5.730957644E0
9.179102175E0,-3.700400352E0,2.636871338E-1,1.153735757E0,3.885048245E0
9.187128148E0,-2.160533905E0,1.422956467E0,7.595347166E-1,2.696220474E0
9.195154121E0,-3.418412209E-1,2.583791018E0,1.226291656E-1,2.609189406E0
9.203180094E0,1.400403023E0,3.657046556E0,-4.071499109E-1,3.937116863E0
9.211206067E0,3.053822517E0,4.705383301E0,-5.965443254E-1,5.641128354E0
9.219232040E0,4.679576874E0,5.787770271E0,-7.515121698E-1,7.480741606E0
9.227258013E0,5.800000191E0,6.596796989E0,-8.960030675E-1,8.829527407E0
9.235283986E0,6.790827274E0,7.315849304E0,-1.027844906E0,1.003461266E1
9.243309959E0,7.591284275E0,7.776669025E0,-1.115711451E0,1.092469634E1
9.251335932E0,8.143109322E0,8.070163727E0,-1.071289539E0,1.151457482E1
9.259361905E0,8.110543251E0,8.189097404E0,-1.080804348E0,1.157628464E1
9.267387878E0,7.755090714E0,8.062712669E0,-1.035572290E0,1.123481987E1
9.275413851E0,7.475369453E0,7.885590553E0,-1.036978126E0,1.091508179E1
9.283439824E0,7.271060467E0,7.535624504E0,-9.867857695E-1,1.051797049E1
9.291465797E0,7.278486252E0,7.147202015E0,-1.001216412E0,1.024994112E1
9.299491770E0,7.404615402E0,6.662961483E0,-1.047137022E0,1.001598128E1
9.307517743E0,7.536328316E0,6.268430233E0,-1.107332349E0,9.864869335E0
9.315543716E0,7.629990101E0,6.034038544E0,-1.035232067E0,9.782539319E0
9.323569689E0,7.565948963E0,5.976818085E0,-8.543336987E-1,9.679660335E0
9.331595662E0,7.424882412E0,6.025731087E0,-5.761515498E-1,9.579679774E0
9.339621635E0,7.226268291E0,6.096572876E0,-2.504921854E-1,9.457795757E0
9.347617091E0,7.007644176E0,6.156407833E0,8.461770415E-2,9.328214967E0
9.355643064E0,6.829332352E0,6.211685181E0,4.081640244E-1,9.240747320E0
9.363669037E0,6.620631695E0,6.210886955E0,5.689584017E-1,9.095690984E0
9.371695010E0,6.456614971E0,6.277359962E0,7.925888896E-1,9.039984631E0
9.379720984E0,6.365078926E0,6.426019192E0,1.201454401E0,9.124222984E0
9.387746957E0,6.184859753E0,6.513957500E0,1.691776514E0,9.140363245E0
9.395772930E0,5.830245972E0,6.466936111E0,1.988811255E0,8.931315747E0
9.403798903E0,5.263536453E0,6.253942490E0,2.170888662E0,8.457503783E0
9.411824876E0,4.812059402E0,6.034178257E0,2.132867336E0,8.007268323E0
9.419850849E0,4.594288826E0,5.900166512E0,1.893787146E0,7.714005732E0
9.427876822E0,4.701988220E0,5.784009457E0,1.427131176E0,7.589477058E0
9.435902795E0,5.061043262E0,5.541863441E0,1.184874415E0,7.598048216E0
9.443928768E0,5.598649502E0,5.335211754E0,1.044615507E0,7.803882512E0
9.451954742E0,6.186082363E0,5.053265572E0,9.331313372E-1,8.042004852E0
9.459980715E0,6.733573914E0,4.496364594E0,8.370137215E-1,8.139957259E0
9.468006688E0,7.290169239E0,4.099243164E0,6.898328662E-1,8.392033808E0
9.476032661E0,7.920509815E0,3.849757195E0,4.416904449E-1,8.817607195E0
9.484058634E0,8.289988518E0,3.651479721E0,2.149135023E-1,9.061092737E0
9.492084607E0,7.702440262E0,3.197181702E0,4.445579648E-2,8.339756180E0
9.500110580E0,5.895805359E0,1.930223465E0,-2.503057122E-1,6.208778979E0
9.508136553E0,3.484187126E0,-6.647109985E-4,-8.920079470E-1,3.596559265E0
9.516162526E0,1.835719585E0,-1.555762291E0,-1.494813085E0,2.832795238E0
9.524188499E0,5.826315880E-1,-2.707259178E0,-1.641931415E0,3.219417742E0
9.532214472E0,-1.259579659E-1,-2.512114525E0,-1.135195851E0,2.759575043E0
9.540240445E0,-1.798084736E0,-1.954831600E0,-6.810375452E-1,2.741949569E0
9.548266418E0,-4.760821342E0,-2.509358406E0,-4.518108964E-1,5.400595574E0
9.556261874E0,-8.444108963E0,-3.767476082E0,-5.359930992E-1,9.261972836E0
9.564287847E0,-1.121422386E1,-5.175876141E0,-5.306973457E-1,1.236244920E1
9.572313820E0,-1.302144432E1,-7.012001991E0,-6.485702991E-1,1.480360860E1
9.580339793E0,-1.393529320E1,-9.327458382E0,-1.041606426E0,1.680115533E1
9.588365766E0,-1.481567955E1,-1.197655296E1,-1.136018276E0,1.908488195E1
9.596391739E0,-1.601235580E1,-1.465395451E1,-3.634130359E-1,2.170866164E1
9.604417712E0,-1.700708389E1,-1.651215935E1,1.353793025E0,2.374289503E1
9.612443685E0,-1.743965149E1,-1.744177437E1,3.196921587E0,2.487121318E1
9.620469658E0,-1.793771172E1,-1.740478897E1,5.610669136E0,2.561577227E1
9.628495631E0,-1.777774048E1,-1.674283218E1,7.763680458E0,2.562508966E1
9.636521604E0,-1.657193947E1,-1.557397556E1,8.883178711E0,2.441492897E1
9.644547577E0,-1.504312897E1,-1.420916939E1,9.164822578E0,2.263161940E1
9.652573551E0,-1.338247490E1,-1.289742661E1,8.735956192E0,2.053658146E1
9.660599524E0,-1.196791840E1,-1.151394653E1,7.958090305E0,1.841557050E1
9.668625497E0,-1.053684044E1,-1.019841099E1,6.925044060E0,1.621693030E1
9.676651470E0,-9.248361588E0,-8.723645210E0,5.623262405E0,1.390162789E1
9.684677443E0,-8.058906555E0,-6.913049698E0,4.057001591E0,1.136641953E1
9.692672899E0,-6.836022377E0,-4.995159626E0,2.465777636E0,8.818326427E0
9.700698872E0,-5.819301128E0,-3.449564457E0,1.413788438E0,6.911046108E0
9.708724845E0,-4.519389629E0,-1.856608868E0,7.312579155E-1,4.940305380E0
9.716750818E0,-3.217463493E0,-2.443814278E-1,2.768301666E-1,3.238584344E0
9.724776791E0,-2.030648232E0,1.388864994E0,-1.593756676E-2,2.460230115E0
9.732802764E0,-9.802436829E-1,2.925246954E0,-6.827563047E-2,3.085872483E0
9.740828737E0,-1.424217224E-2,4.389202118E0,2.693474293E-3,4.389226051E0
9.748854710E0,8.580660820E-1,5.605869293E0,1.677846611E-1,5.673640773E0
9.756880683E0,1.970597744E0,6.828642368E0,2.664858401E-1,7.112287028E0
9.764906656E0,2.969656467E0,7.870773792E0,2.766092420E-1,8.416914654E0
9.772902113E0,4.075872421E0,8.749082565E0,2.869125605E-1,9.656163863E0
9.780928086E0,5.428488731E0,9.543971062E0,1.850719452E-1,1.098135352E1
9.788954059E0,6.460090637E0,9.981375694E0,2.897417545E-2,1.188955303E1
9.796980032E0,6.957897186E0,9.807970047E0,-1.483896971E-1,1.202624751E1
9.805006005E0,7.369443417E0,9.147442818E0,-3.299029469E-1,1.175130811E1
9.813031978E0,7.655328274E0,8.299837112E0,-3.448737264E-1,1.129647224E1
9.821057951E0,7.759991169E0,7.505204201E0,-2.056991458E-1,1.079758608E1
9.829053406E0,7.785629749E0,6.872324467E0,-3.046238422E-2,1.038488335E1
9.837079380E0,7.898733616E0,6.316720009E0,1.872277260E-2,1.011391591E1
9.845105354E0,7.891491890E0,5.939348221E0,-4.284608364E-2,9.876909300E0
9.853131327E0,7.870886803E0,5.700662136E0,-1.056371331E-1,9.719031179E0
9.861157300E0,8.082567215E0,5.793286324E0,-1.416775584E-1,9.945357296E0
9.869183273E0,7.982844830E0,6.059389114E0,4.167294502E-2,1.002216267E1
9.877209246E0,7.710273743E0,6.362655640E0,3.336486220E-1,1.000215124E1
9.885235219E0,7.272183895E0,6.601896763E0,7.517103553E-1,9.850622718E0
9.893261192E0,7.043553829E0,6.844585419E0,9.424386621E-1,9.866518673E0
9.901256647E0,6.986543655E0,7.068083763E0,1.159236073E0,1.000566982E1
9.909282620E0,6.872675896E0,7.228273869E0,1.347142339E0,1.006461174E1
9.917308593E0,6.663874149E0,7.277286530E0,1.511674643E0,9.982548679E0
9.925334566E0,6.490967751E0,7.254186630E0,1.665955305E0,9.875793289E0
9.933360539E0,6.461390495E0,7.238166809E0,1.732467413E0,9.856067635E0
9.941386512E0,6.442534447E0,7.108146191E0,1.656931877E0,9.735369310E0
9.949381969E0,6.405891895E0,6.933789253E0,1.441768885E0,9.549428355E0
9.957407942E0,6.335346222E0,6.721875668E0,1.104761600E0,9.302726613E0
9.965433915E0,6.172561646E0,6.559479237E0,7.262667418E-1,9.036301705E0
9.973459888E0,6.028671265E0,6.478871822E0,3.303939700E-1,8.856061059E0
9.981485861E0,6.003285885E0,6.492775440E0,-1.910972595E-2,8.842846799E0
9.989511834E0,6.018234730E0,6.588183403E0,-3.271685839E-1,8.929185243E0
9.997537807E0,5.922765732E0,6.518177986E0,-5.805652142E-1,8.826259352E0
1.000556378E1,5.771249294E0,6.264271736E0,-7.039029002E-1,8.546572301E0
1.001355924E1,5.502866745E0,5.732046127E0,-8.275806904E-1,7.988916386E0
1.002158521E1,4.730276108E0,4.830615997E0,-7.872616053E-1,6.806624994E0
1.002961118E1,3.822493076E0,3.792655230E0,-7.109907866E-1,5.431500245E0
1.003763716E1,2.511692047E0,2.192715168E0,-6.879992485E-1,3.404400052E0
1.004566313E1,7.381625175E-1,1.514501572E-1,-5.972533822E-1,9.615262113E-1
1.005368910E1,-8.239641190E-1,-1.821833611E0,-3.471388221E-1,2.029408765E0
1.006171508E1,-2.048921108E0,-3.158964634E0,2.081610560E-1,3.771003353E0
1.006974105E1,-3.439839840E0,-3.997926235E0,5.661129951E-1,5.304375197E0
1.007776702E1,-5.439766407E0,-4.922977924E0,9.124170542E-1,7.393191130E0
1.008576248E1,-8.151885033E0,-6.155084133E0,1.139760971E0,1.027800298E1
1.009378845E1,-1.056875420E1,-7.320281982E0,8.275468349E-1,1.288293163E1
1.010181442E1,-1.246160507E1,-8.523696899E0,3.531084955E-1,1.510197654E1
1.010984040E1,-1.431288719E1,-9.905106544E0,1.128442883E-1,1.740639564E1
1.011786637E1,-1.580039310E1,-1.134989166E1,7.997253537E-2,1.945453311E1
1.012589234E1,-1.651471710E1,-1.224427986E1,3.745598793E-1,2.056206618E1
1.013391832E1,-1.671727753E1,-1.300602150E1,8.119465113E-1,2.119630204E1
1.014194429E1,-1.613770294E1,-1.323706627E1,1.849045634E0,2.095386240E1
1.014993974E1,-1.516775131E1,-1.316537571E1,3.254740715E0,2.034652635E1
1.015796572E1,-1.429308414E1,-1.319832039E1,4.440007210E0,1.995498884E1
1.016599169E1,-1.342432213E1,-1.343672943E1,5.362763405E0,1.973619400E1
1.017401766E1,-1.247080421E1,-1.365256119E1,6.011952877E0,1.944368695E1
1.018204364E1,-1.128090763E1,-1.360428143E1,6.469523907E0,1.881993862E1
1.019006961E1,-1.003773308E1,-1.325907516E1,6.683041096E0,1.792267273E1
1.019806507E1,-9.352909088E0,-1.265165710E1,6.639500618E0,1.707701099E1
1.020609104E1,-9.001230240E0,-1.189425278E1,6.379307747E0,1.622316129E1
1.021411701E1,-8.518696785E0,-1.081203842E1,5.980093479E0,1.500766097E1
1.022214299E1,-7.911773205E0,-8.972985268E0,5.152444839E0,1.302529492E1
1.023016896E1,-6.768663406E0,-6.935254574E0,4.675209999E0,1.075965375E1
1.023819493E1,-5.298060417E0,-5.081674099E0,4.279400349E0,8.497418618E0
1.024622090E1,-3.817607403E0,-3.068227291E0,3.814674139E0,6.208049918E0
1.025424688E1,-2.462488174E0,-1.262260437E0,3.288171768E0,4.297583390E0
1.026227285E1,-1.487855911E0,7.461547852E-3,2.814494133E0,3.183574738E0
1.027029882E1,-4.152722359E-1,1.325575352E0,2.291480780E0,2.679642739E0
1.027829428E1,7.677383423E-1,2.614779234E0,1.680311084E0,3.201552427E0
1.028632025E1,1.991532803E0,3.937892437E0,8.994413018E-1,4.503575735E0
1.029434623E1,3.176025391E0,5.114016533E0,9.581542015E-2,6.020754353E0
1.030237220E1,4.188389778E0,6.127428055E0,-7.248159647E-1,7.457435329E0
1.031039817E1,4.905584812E0,6.937935829E0,-1.166182041E0,8.576694962E0
1.031842414E1,5.531989574E0,7.729912758E0,-1.609025717E0,9.640716968E0
1.032645012E1,5.925639629E0,8.408148766E0,-1.933870792E0,1.046661487E1
1.033444557E1,6.253678322E0,8.950399399E0,-2.258872509E0,1.114991690E1
1.034247155E1,6.568264008E0,9.297428131E0,-2.634068966E0,1.168428779E1
1.035049752E1,6.702526093E0,9.429327965E0,-3.032934666E0,1.195971465E1
1.035852349E1,6.758370876E0,9.213019371E0,-3.408893108E0,1.192375172E1
1.036654947E1,6.887852669E0,8.709578514E0,-3.869444847E0,1.175890623E1
1.037457544E1,7.014431000E0,8.108267784E0,-4.264811993E0,1.153840847E1
1.038260141E1,7.204552174E0,7.505821228E0,-4.422469616E0,1.130491760E1
1.039062739E1,7.469470501E0,7.052085876E0,-4.339789391E0,1.115162216E1
1.039865336E1,7.652391434E0,6.758300304E0,-4.060218334E0,1.098722397E1
1.040667933E1,7.718861103E0,6.673665047E0,-3.745725155E0,1.086964023E1
1.041467479E1,7.684418678E0,6.741944790E0,-3.290210724E0,1.073916182E1
1.042270076E1,7.706900597E0,6.860058308E0,-2.694289446E0,1.066376633E1
1.043072673E1,7.648906708E0,7.061844826E0,-2.123993635E0,1.062481883E1
1.043875271E1,7.516966820E0,7.235344887E0,-1.563975453E0,1.054993010E1
1.044677868E1,7.224376202E0,7.296667576E0,-1.139603138E0,1.033110181E1
1.045480465E1,6.935756683E0,7.272342682E0,-8.787223101E-1,1.008780659E1
1.046283063E1,6.536071301E0,7.183730125E0,-6.521902084E-1,9.734041228E0
1.047085660E1,6.161355495E0,7.146071911E0,-4.562801421E-1,9.446525121E0
1.047888257E1,5.848287582E0,7.127570152E0,-2.697399259E-1,9.223745636E0
1.048690854E1,5.577174187E0,7.164534092E0,-1.642099023E-2,9.079410240E0
1.049493452E1,5.313076019E0,7.208124161E0,2.059802711E-1,8.957022863E0
1.050296049E1,5.123584747E0,7.260227680E0,2.924485803E-1,8.890869069E0
1.051098646E1,4.934988976E0,7.195831776E0,3.094148934E-1,8.730970662E0
1.051901244E1,4.788269043E0,7.098447800E0,3.378221095E-1,8.569107618E0
1.052703841E1,4.619913101E0,7.038944721E0,2.306979448E-1,8.422800092E0
1.053506438E1,4.246788025E0,6.960966110E0,1.433183551E-1,8.155415248E0
1.054309036E1,3.865632534E0,6.825710297E0,2.179446816E-2,7.844355355E0
1.055111633E1,3.556093931E0,6.479110718E0,-1.649854034E-1,7.392692333E0
1.055911178E1,2.950692177E0,5.862146854E0,-4.142214358E-1,6.575935634E0
1.056713776E1,1.882057190E0,4.799559593E0,-7.447469234E-1,5.208892352E0
1.057516373E1,4.679956436E-1,3.187537432E0,-1.065714359E0,3.393399755E0
1.058318970E1,-7.937917709E-1,1.195873737E0,-1.090057969E0,1.802344514E0
1.059121568E1,-1.330905914E0,-3.850355148E-1,-8.764256835E-1,1.639416018E0
1.059924165E1,-1.501641273E0,-1.686114311E0,-3.663321435E-1,2.287379991E0
1.060726762E1,-1.555084229E0,-2.287836552E0,-2.874620259E-2,2.766461529E0
1.061529360E1,-2.206189632E0,-2.508223057E0,5.259878933E-2,3.340841545E0
1.062331957E1,-3.430530548E0,-3.100326538E0,-7.266893238E-2,4.624483242E0
1.063134554E1,-4.771296501E0,-3.466042519E0,-3.870826960E-1,5.910038414E0
1.063937152E1,-5.965384960E0,-3.804991245E0,-7.260434031E-1,7.112729091E0
1.064739749E1,-7.265272141E0,-4.488785744E0,-9.381442070E-1,8.591477829E0
1.065539295E1,-8.479616165E0,-5.430446625E0,-1.027947187E0,1.012177436E1
1.066341892E1,-9.448532104E0,-6.881559849E0,-1.133823395E0,1.174377198E1
1.067144489E1,-9.869735718E0,-8.705678940E0,-8.510580063E-1,1.318805629E1
1.067947086E1,-9.825754166E0,-1.017362404E1,-2.702402472E-1,1.414641654E1
1.068749684E1,-9.513465881E0,-1.086187172E1,4.486474395E-1,1.444602280E1
1.069552281E1,-9.206975937E0,-1.122986412E1,1.437127113E0,1.459258676E1
1.070354878E1,-9.261398315E0,-1.155562782E1,2.200163841E0,1.497153145E1
1.071157476E1,-9.479998589E0,-1.175360680E1,2.450827837E0,1.529784962E1
1.071960073E1,-9.792682648E0,-1.161432266E1,2.165713787E0,1.534533938E1
1.072759619E1,-1.045291519E1,-1.123051739E1,2.150698662E0,1.549236785E1
1.073562216E1,-1.121561718E1,-1.094125271E1,2.273090363E0,1.583249883E1
1.074364813E1,-1.192191696E1,-1.086001968E1,2.477277279E0,1.631591353E1
1.075167411E1,-1.240948486E1,-1.063671875E1,2.659886122E0,1.655929028E1
1.075970008E1,-1.272634315E1,-1.016565704E1,2.878556967E0,1.654044992E1
1.076772605E1,-1.254983139E1,-9.325960159E0,3.105022430E0,1.594092109E1
1.077575202E1,-1.185736847E1,-8.139671326E0,3.131091118E0,1.471921084E1
1.078377800E1,-1.105036163E1,-7.114134789E0,3.010000229E0,1.348263726E1
1.079177345E1,-9.908837318E0,-5.989846230E0,2.718994856E0,1.189353807E1
1.079979943E1,-8.873990059E0,-4.995913029E0,2.292811632E0,1.043857422E1
1.080782540E1,-8.049474716E0,-4.093869686E0,1.873993635E0,9.223104920E0
1.081585137E1,-7.129638195E0,-3.294698238E0,1.371288419E0,7.972904690E0
1.082387734E1,-6.058708191E0,-2.570603371E0,8.540730476E-1,6.636669903E0
1.083190332E1,-5.086122990E0,-1.670347214E0,3.467857838E-1,5.364603178E0
1.083992929E1,-4.089418411E0,-6.162600517E-1,-1.994704008E-1,4.140399478E0
1.084795526E1,-3.181542873E0,5.627493858E-1,-5.587111712E-1,3.278880922E0
1.085598124E1,-2.272301197E0,1.790382385E0,-7.661328316E-1,2.992621147E0
1.086397669E1,-1.236552238E0,3.073225260E0,-9.760264158E-1,3.453462393E0
1.087200267E1,-3.289370537E-1,4.244106293E0,-1.050972819E0,4.384652971E0
1.088002864E1,7.266097069E-1,5.491293430E0,-1.100814939E0,5.647482513E0
1.088805461E1,1.830066204E0,6.567234516E0,-1.165961027E0,6.916442483E0
1.089608059E1,2.990087032E0,7.384341717E0,-1.173276901E0,8.052682891E0
1.090410656E1,4.177848816E0,7.920332432E0,-1.115418673E0,9.023870864E0
1.091213253E1,5.228538990E0,8.130576134E0,-1.078367949E0,9.726600931E0
1.092012799E1,5.830681801E0,8.029850006E0,-9.724801779E-1,9.971010936E0
1.092815396E1,6.370471001E0,7.791544437E0,-8.174445629E-1,1.009748885E1
1.093617993E1,6.818261623E0,7.587004185E0,-5.986942053E-1,1.021810936E1
1.094420591E1,7.178239822E0,7.482052326E0,-3.793447018E-1,1.037555475E1
1.095223188E1,7.363567352E0,7.334006786E0,-9.396541119E-2,1.039320014E1
1.096025785E1,7.405209064E0,7.124345303E0,1.851998568E-1,1.027753454E1
1.096828383E1,7.403306961E0,6.978269100E0,3.848235607E-1,1.018102562E1
1.097630980E1,7.347668171E0,6.800876141E0,5.684095621E-1,1.002812212E1
1.098433577E1,7.299352646E0,6.655675888E0,7.074760795E-1,9.903488930E0
1.099233123E1,7.236804962E0,6.669435024E0,7.642173767E-1,9.871004903E0
1.100035720E1,7.167119980E0,6.787272453E0,7.781745791E-1,9.901526743E0
1.100838317E1,7.181999683E0,6.974556446E0,6.310937405E-1,1.003114332E1
1.101640915E1,7.179409981E0,7.160746098E0,5.120131373E-1,1.015294882E1
1.102443512E1,7.205892086E0,7.358675003E0,2.794266343E-1,1.030306060E1
1.103246109E1,7.334006786E0,7.614756107E0,-5.923253298E-2,1.057240155E1
1.104048707E1,7.464832306E0,7.852878571E0,-3.499719501E-1,1.084038300E1
1.104848252E1,7.461608887E0,7.955623627E0,-5.164075494E-1,1.091944281E1
1.105650850E1,7.388519287E0,8.138870239E0,-6.308779716E-1,1.101042384E1
1.106453447E1,7.288753510E0,8.287438393E0,-7.845779657E-1,1.106449843E1
1.107256044E1,7.093511581E0,8.316921234E0,-8.320873976E-1,1.096273026E1
1.108058641E1,6.856311798E0,8.255203247E0,-7.863708138E-1,1.075991502E1
1.108861239E1,6.426576614E0,8.097483635E0,-5.619874001E-1,1.035306515E1
1.109663836E1,5.974310875E0,7.814891815E0,-2.139917612E-1,9.839243720E0
1.110466433E1,5.642770290E0,7.532676697E0,1.103734970E-1,9.412452235E0
1.111269031E1,5.433176994E0,7.214087009E0,3.841711879E-1,9.039361213E0
1.112071628E1,5.148844719E0,6.902983665E0,6.188941002E-1,8.633933943E0
1.112874225E1,4.441113472E0,6.467177868E0,6.681330204E-1,7.873644657E0
1.113673771E1,3.296443701E0,5.726151943E0,5.447662473E-1,6.629640067E0
1.114476368E1,1.937717438E0,4.437800407E0,3.754413128E-1,4.856930873E0
1.115278966E1,2.630228996E-1,2.932204485E0,2.683359385E-1,2.956181382E0
1.116081563E1,-1.346137047E0,9.431896210E-1,2.763234377E-1,1.666747207E0
1.116884160E1,-2.751061440E0,-9.296212196E-1,4.314595461E-1,2.935760889E0
1.117686758E1,-3.350659370E0,-2.197371006E0,6.248615384E-1,4.055343327E0
1.118489355E1,-3.411173820E0,-3.027415276E0,7.214158177E-1,4.617552476E0
1.119291952E1,-3.685549736E0,-3.840008736E0,5.487988591E-1,5.350712488E0
1.120094549E1,-4.549427509E0,-4.729703903E0,1.878507733E-1,6.565262949E0
1.120897147E1,-6.484473705E0,-6.267796516E0,-2.748942375E-2,9.018560200E0
1.121699744E1,-9.396629333E0,-8.552878380E0,1.346405149E-1,1.270694690E1
1.122499290E1,-1.198795128E1,-1.091671467E1,4.995779991E-1,1.622144301E1
1.123301887E1,-1.346472740E1,-1.284159470E1,1.206336379E0,1.864566131E1
1.124104484E1,-1.394772148E1,-1.400507450E1,2.502171040E0,1.992340097E1
1.124907082E1,-1.395878410E1,-1.483522034E1,3.920835018E0,2.074377891E1
1.125709679E1,-1.369133091E1,-1.571022034E1,5.638252735E0,2.158827133E1
1.126512276E1,-1.296270275E1,-1.630525589E1,6.950847626E0,2.195921936E1
1.127314874E1,-1.186101532E1,-1.657708549E1,7.627964020E0,2.176394456E1
1.128117471E1,-1.070119476E1,-1.643543816E1,7.869233608E0,2.113206176E1
1.128920068E1,-9.603713989E0,-1.601917076E1,7.909288883E0,2.028304723E1
1.129722665E1,-8.675263405E0,-1.537304497E1,7.562314510E0,1.920362746E1
1.130522211E1,-8.100696564E0,-1.450367737E1,6.518587589E0,1.784572571E1
1.131324808E1,-8.483626366E0,-1.334948349E1,5.026659012E0,1.659662395E1
1.132127406E1,-9.232465744E0,-1.170237541E1,3.303093433E0,1.526743070E1
1.132930003E1,-9.521222115E0,-9.655300140E0,1.528263569E0,1.364602803E1
1.133732600E1,-9.058273315E0,-7.446210861E0,-1.774013042E-1,1.172731183E1
1.134535198E1,-8.503046036E0,-5.862956524E0,-1.201846719E0,1.039810014E1
1.135337795E1,-7.539418221E0,-4.233506203E0,-1.700389862E0,8.812305462E0
1.136140392E1,-6.183162212E0,-2.503369808E0,-1.933780789E0,6.945348334E0
1.136942989E1,-4.703635693E0,-8.549861908E-1,-1.945259571E0,5.161320075E0
1.137745587E1,-3.387979507E0,6.616353989E-1,-1.679222703E0,3.838743991E0
1.138548184E1,-2.347339630E0,2.050376892E0,-1.132892370E0,3.316246954E0
1.139350781E1,-1.740300655E0,3.176094532E0,-5.448263884E-1,3.662384284E0
1.140150327E1,-1.039743900E0,4.556414604E0,1.288204193E-1,4.675315618E0
1.140952924E1,-4.526691437E-1,5.936923027E0,7.083289623E-1,5.996139950E0
1.141755522E1,-5.296802521E-2,7.219608784E0,1.059153080E0,7.297078994E0
1.142558119E1,3.591690063E-1,8.214855194E0,1.072660208E0,8.292372891E0
1.143360716E1,7.755966187E-1,8.862968445E0,7.965168953E-1,8.932424023E0
1.144163314E1,1.147795200E0,9.524549484E0,3.573527336E-1,9.600113420E0
1.144965911E1,1.703634262E0,1.020908928E1,5.689740181E-3,1.035026116E1
1.145768508E1,2.441360950E0,1.082543945E1,-1.062631607E-1,1.109782296E1
1.146571105E1,3.415037632E0,1.120718575E1,-2.016197443E-1,1.171768513E1
1.147373703E1,4.489505291E0,1.131707191E1,-4.017378092E-1,1.218167344E1
1.148176300E1,5.483568668E0,1.107960510E1,-6.838005781E-1,1.238122602E1
1.148978897E1,6.090604305E0,1.055094433E1,-9.515560865E-1,1.221979321E1
1.149781495E1,6.582787514E0,9.860415459E0,-1.142014265E0,1.191071287E1
1.150584092E1,6.984998226E0,9.133367538E0,-1.232460260E0,1.156406335E1
1.151386689E1,7.286989212E0,8.547541618E0,-1.315251470E0,1.130887112E1
1.152189287E1,7.409564972E0,8.066946030E0,-1.355320930E0,1.103694551E1
1.152991884E1,7.467643738E0,7.808805466E0,-1.395259619E0,1.089448921E1
1.153794481E1,7.527645588E0,7.596759796E0,-1.520448446E0,1.080222065E1
1.154597078E1,7.534589767E0,7.476418018E0,-1.645747066E0,1.074129195E1
1.155399676E1,7.532181263E0,7.523944855E0,-1.706890941E0,1.078225289E1
1.156202273E1,7.550764084E0,7.689965248E0,-1.717206240E0,1.091322139E1
1.157001819E1,7.454274654E0,7.935681820E0,-1.623431206E0,1.100803277E1
1.157804416E1,7.232516289E0,8.149310112E0,-1.551702261E0,1.100583150E1
1.158607013E1,6.821472168E0,8.356941223E0,-1.395977497E0,1.087748603E1
1.159409611E1,6.459632874E0,8.478830338E0,-1.252289057E0,1.073245772E1
1.160212208E1,6.164083958E0,8.483966827E0,-1.002604604E0,1.053464950E1
1.161014805E1,5.939185619E0,8.416524887E0,-6.487760544E-1,1.032146924E1
1.161817403E1,5.805749416E0,8.255690575E0,-2.792530060E-1,1.009659029E1
1.162620000E1,5.699555397E0,8.032354355E0,1.024292707E-1,9.849575623E0
1.163422597E1,5.510870934E0,7.689066410E0,4.336696267E-1,9.469926613E0
1.164228246E1,5.084002018E0,7.134774685E0,8.510703444E-1,8.802068340E0
1.165030843E1,4.616721153E0,6.327376366E0,1.314102888E0,7.942082364E0
1.165833441E1,3.932835817E0,5.301470757E0,1.731361508E0,6.824251052E0
1.166636038E1,2.775168896E0,3.962612867E0,2.271852970E0,5.344640217E0
1.167438635E1,1.677890778E0,2.452322960E0,2.728803158E0,4.034299448E0
1.168241233E1,6.846928596E-1,4.954576492E-1,3.174826622E0,3.285392925E0
1.169043830E1,-3.523874283E-2,-1.510927677E0,3.759435177E0,4.051851066E0
1.169846427E1,-5.688543320E-1,-3.112972260E0,4.285018921E0,5.326873257E0
1.170649025E1,-1.118630886E0,-4.299788952E0,4.528596878E0,6.344108273E0
1.171451622E1,-2.041551113E0,-5.180607319E0,4.262831688E0,7.012728224E0
1.172254219E1,-3.093134880E0,-5.901120663E0,3.657245398E0,7.600404750E0
1.173056816E1,-4.590420246E0,-6.661374569E0,2.655625582E0,8.514588447E0
1.173859414E1,-6.534633636E0,-7.784229755E0,1.466943026E0,1.026876777E1
1.174662011E1,-9.455721855E0,-9.240909576E0,4.532107711E-1,1.322915287E1
1.175461557E1,-1.187930202E1,-1.080741882E1,-6.357264519E-2,1.605995516E1
1.176264154E1,-1.276106262E1,-1.189874363E1,6.916987300E-1,1.746147950E1
1.177066751E1,-1.296059418E1,-1.257087898E1,1.889255524E0,1.815415342E1
1.177869349E1,-1.318167686E1,-1.327831554E1,2.942974806E0,1.894020510E1
1.178671946E1,-1.353190994E1,-1.384528255E1,3.723157167E0,1.971462237E1
1.179474543E1,-1.381525707E1,-1.402198792E1,4.270215988E0,2.014229921E1
1.180277141E1,-1.387628174E1,-1.374034500E1,4.565176964E0,2.005465323E1
1.181079738E1,-1.339797592E1,-1.298639488E1,4.587100506E0,1.921441391E1
1.181882335E1,-1.310429192E1,-1.235269737E1,4.427915096E0,1.854502713E1
1.182684932E1,-1.328225994E1,-1.198358345E1,3.982648134E0,1.832719803E1
1.183487530E1,-1.338032913E1,-1.193594456E1,3.299329758E0,1.823144418E1
1.184290127E1,-1.298015022E1,-1.151792145E1,2.719755173E0,1.756541723E1
1.185092724E1,-1.240633392E1,-1.048962498E1,2.279086590E0,1.640559628E1
1.185895322E1,-1.195910645E1,-8.867136955E0,1.997632265E0,1.502121431E1
1.186697919E1,-1.169975281E1,-7.366909027E0,1.569362879E0,1.391468520E1
1.187500516E1,-1.131864262E1,-5.802951813E0,1.156412244E0,1.277196969E1
1.188303114E1,-1.056755638E1,-4.193775654E0,7.514531612E-1,1.139410742E1
1.189105711E1,-9.579725266E0,-2.712853432E0,4.557564259E-1,9.966866299E0
1.189908308E1,-8.336972237E0,-1.364607334E0,3.591466248E-1,8.455545254E0
1.190710906E1,-6.771429062E0,-4.499635696E-1,4.483604431E-1,6.801157684E0
1.191513503E1,-4.980171204E0,9.168624878E-2,4.832084775E-1,5.004398267E0
1.192316100E1,-2.650277615E0,5.054588318E-1,2.019265890E-1,2.705593172E0
1.193118697E1,-4.568295479E-1,1.259604931E0,-3.234037161E-1,1.378364169E0
1.193921295E1,1.428472519E0,2.622605562E0,-7.976163626E-1,3.091081612E0
1.194720840E1,2.834766865E0,4.207057953E0,-1.046549678E0,5.179817181E0
1.195523438E1,3.760609150E0,5.582119465E0,-1.125763416E0,6.824190953E0
1.196326035E1,4.363355637E0,6.324666977E0,-1.216642618E0,7.779492531E0
1.197128632E1,4.937341690E0,6.874890804E0,-1.334565878E0,8.568694919E0
1.197931230E1,5.445838928E0,7.214266777E0,-1.327118993E0,9.135866220E0
1.198733827E1,6.039301872E0,7.485674858E0,-1.396140456E0,9.718935300E0
1.199536424E1,6.569612503E0,7.533649921E0,-1.324894309E0,1.008320557E1
1.200339022E1,7.201932430E0,7.400614738E0,-1.123649836E0,1.038746929E1
1.201141619E1,7.756257534E0,7.130415440E0,-9.949778318E-1,1.058264316E1
1.201944216E1,8.379933357E0,6.839129448E0,-8.223205805E-1,1.084772722E1
1.202746813E1,8.907290459E0,6.578509808E0,-5.970247984E-1,1.108932158E1
1.203549411E1,9.149588585E0,6.294257164E0,-4.297749996E-1,1.111383602E1
1.204352008E1,9.258432388E0,5.934224129E0,-2.844225168E-1,1.100065827E1
1.205154605E1,9.384835243E0,5.710675716E0,-2.170645446E-1,1.098790547E1
1.205957203E1,9.615861893E0,5.566729069E0,-3.056201935E-1,1.111515525E1
1.206759800E1,9.696063995E0,5.490879536E0,-4.927034378E-1,1.115375147E1
1.207562397E1,9.345479965E0,5.437320709E0,-5.484727025E-1,1.082604612E1
1.208364995E1,8.352523804E0,5.646482944E0,-4.799281359E-1,1.009345107E1
1.209167592E1,7.140353203E0,6.236260414E0,-4.654138684E-1,9.491690992E0
1.209967138E1,6.317080498E0,6.848552227E0,-4.192664623E-1,9.326519071E0
1.210769735E1,5.627764225E0,7.491059780E0,-2.464566529E-1,9.372750273E0
1.211572332E1,5.437939644E0,7.927954674E0,-1.893061846E-1,9.615585771E0
1.212374929E1,5.655361652E0,8.063799858E0,-2.197089344E-1,9.851713333E0
1.213177527E1,6.114813805E0,7.929359436E0,-2.920423150E-1,1.001753351E1
1.213980124E1,6.541906357E0,7.636319160E0,-3.130196929E-1,1.006021324E1
1.214782721E1,6.848650455E0,7.322455406E0,-2.733037472E-1,1.002980863E1
1.215585319E1,7.158341408E0,6.989044189E0,-3.312649429E-1,1.000991143E1
1.216387916E1,7.488228321E0,6.656411171E0,-4.351379871E-1,1.002849531E1
1.217190513E1,7.825452805E0,6.304576874E0,-5.585924983E-1,1.006466228E1
1.217993111E1,8.146060944E0,5.994009495E0,-7.579817176E-1,1.014204097E1
1.218795708E1,8.373981476E0,5.683891296E0,-9.528963566E-1,1.016553970E1
1.219598305E1,8.249889374E0,5.448716640E0,-1.030714273E0,9.940400375E0
1.220400902E1,7.727150917E0,5.043143749E0,-9.702660441E-1,9.278123537E0
1.221203500E1,6.777458191E0,4.509578228E0,-6.959323883E-1,8.170346211E0
1.222006097E1,5.441428185E0,3.643900633E0,-2.710878253E-1,6.554436751E0
1.222808694E1,3.669666290E0,2.622434855E0,2.057932019E-1,4.515082069E0
1.223611292E1,1.655688763E0,1.537944555E0,6.398608685E-1,2.348616756E0
1.224413889E1,-4.461917877E-1,6.142158508E-1,1.095642567E0,1.332959436E0
1.225216486E1,-2.794734001E0,-3.520126343E-1,1.454825878E0,3.170326382E0
1.226019084E1,-4.551066399E0,-7.458782196E-1,1.620591640E0,4.888236589E0
1.226821681E1,-5.845059395E0,-7.049889565E-1,1.501016140E0,6.075753304E0
1.227624278E1,-6.920389175E0,-7.558841705E-1,9.715876579E-1,7.029020543E0
1.228426876E1,-8.059071541E0,-1.280248642E0,1.787081957E-1,8.162083515E0
1.229229473E1,-9.361563683E0,-2.190013409E0,-5.328186154E-1,9.629066881E0
1.230029018E1,-1.131534481E1,-3.626497746E0,-1.163492560E0,1.193910503E1
1.230831616E1,-1.365550804E1,-5.690305710E0,-1.218625903E0,1.484377068E1
1.231634213E1,-1.582020473E1,-8.179339409E0,-4.977309108E-1,1.781651501E1
1.232436810E1,-1.762635803E1,-1.046479607E1,1.077066183E0,2.052706812E1
1.233239408E1,-1.870057106E1,-1.157937050E1,3.327336311E0,2.224554666E1
1.234042005E1,-1.884331894E1,-1.143226624E1,5.247245312E0,2.265614626E1
1.234844602E1,-1.884378433E1,-1.102430534E1,6.868077755E0,2.288654645E1
1.235647200E1,-1.846374893E1,-1.089420891E1,7.679236412E0,2.277201098E1
1.236449797E1,-1.728557014E1,-1.050861168E1,7.761757374E0,2.166718099E1
1.237252394E1,-1.566134357E1,-9.962039948E0,7.533013344E0,2.003163030E1
1.238054992E1,-1.363854027E1,-9.723555565E0,6.860107422E0,1.810023169E1
1.238857589E1,-1.167133427E1,-9.516772270E0,6.143110752E0,1.626428012E1
1.239660186E1,-9.608574867E0,-9.201751709E0,5.225920677E0,1.429360670E1
1.240462783E1,-7.551159859E0,-8.898045540E0,4.479039669E0,1.250028104E1
1.241265381E1,-5.412476540E0,-8.367074966E0,3.936867237E0,1.071455876E1
1.242067978E1,-3.291371346E0,-7.547703743E0,3.567369938E0,8.973688506E0
1.242870575E1,-1.377863884E0,-6.638492584E0,3.315661907E0,7.547297964E0
1.243673173E1,-1.118011475E-1,-5.708814621E0,3.060971260E0,6.478627087E0
1.244475770E1,7.612133026E-1,-4.581865788E0,2.731645584E0,5.388397478E0
1.245278367E1,1.249416828E0,-3.539335728E0,2.448213339E0,4.481259684E0
1.246077913E1,1.660315514E0,-2.519168377E0,2.075225830E0,3.661887377E0
1.246880510E1,2.079917908E0,-1.504155159E0,1.656816125E0,3.055090983E0
1.247683108E1,2.556290627E0,-6.286706924E-1,1.144146681E0,2.870351936E0
1.248485705E1,2.934521198E0,2.709083557E-1,7.468565106E-1,3.040164576E0
1.249288302E1,3.254452705E0,1.150737047E0,2.851128578E-1,3.463660997E0
1.250090899E1,3.817485809E0,2.164314508E0,-1.849965155E-1,4.392229378E0
1.250893497E1,4.658606529E0,3.133245945E0,-6.330091953E-1,5.649827040E0
1.251696094E1,5.420963287E0,4.004760265E0,-1.157884717E0,6.838541128E0
1.252498691E1,6.010589600E0,4.672299862E0,-1.692087412E0,7.798764847E0
1.253301289E1,6.387866020E0,5.391019821E0,-2.013721228E0,8.597848579E0
1.254103886E1,6.707956791E0,6.130375385E0,-2.193373442E0,9.348212328E0
1.254906483E1,6.984401703E0,6.840027332E0,-2.149826527E0,1.000947527E1
1.255709081E1,7.503710747E0,7.589412689E0,-1.961710930E0,1.085141326E1
1.256511678E1,7.997428417E0,8.336091042E0,-1.720782280E0,1.167948487E1
1.257314275E1,8.163203239E0,8.747385025E0,-1.477590084E0,1.205561713E1
1.258116872E1,8.156057358E0,8.879569054E0,-1.202787638E0,1.211671227E1
1.258919470E1,8.062717438E0,8.741685867E0,-9.727584124E-1,1.193192119E1
1.259722067E1,7.871382236E0,8.460536957E0,-7.339291573E-1,1.157920532E1
1.260524664E1,7.679037094E0,8.181518555E0,-4.313350916E-1,1.122902073E1
1.261327262E1,7.531101227E0,7.983805656E0,-1.198907048E-1,1.097601987E1
1.262129859E1,7.344678402E0,7.946125031E0,1.526911557E-1,1.082166893E1
1.262932456E1,7.045149326E0,7.985278130E0,3.782768250E-1,1.065560365E1
1.263735054E1,6.637504578E0,8.062723160E0,4.971376359E-1,1.045519572E1
1.264537651E1,6.256541252E0,8.189528465E0,5.601426363E-1,1.032116489E1
1.265340248E1,6.071367264E0,8.263227463E0,5.125994086E-1,1.026670282E1
1.266142846E1,5.950281143E0,8.274370193E0,3.693862557E-1,1.019840644E1
1.266945443E1,5.722955227E0,8.333531380E0,1.255792677E-1,1.011017962E1
1.267744988E1,5.227070332E0,8.464042664E0,-1.952852607E-1,9.949895416E0
1.268547586E1,4.583517551E0,8.688398361E0,-4.679641128E-1,9.834423706E0
1.269350183E1,4.082195759E0,8.965229034E0,-8.982347846E-1,9.891737945E0
1.270152780E1,3.776263237E0,9.121730804E0,-1.444739342E0,9.977645447E0
1.270955378E1,3.581269264E0,9.028963089E0,-1.945262551E0,9.906145083E0
1.271757975E1,3.359712601E0,8.872440338E0,-2.257803440E0,9.752207067E0
1.272560572E1,2.897280216E0,8.577383041E0,-2.534025908E0,9.401437113E0
1.273363170E1,2.510435104E0,8.216251373E0,-2.873855114E0,9.059145338E0
1.274165767E1,1.735917091E0,7.833608627E0,-3.268171310E0,8.663704519E0
1.274968364E1,2.144813538E-3,7.150746346E0,-3.513422489E0,7.967265245E0
1.275770962E1,-2.810374260E0,6.109129906E0,-3.442799568E0,7.554637023E0
1.276573559E1,-6.046458721E0,5.044041634E0,-3.214866400E0,8.505138743E0
1.277376156E1,-1.017225266E1,3.779056787E0,-2.911515236E0,1.123534224E1
1.278178753E1,-1.385979652E1,2.453949928E0,-2.590459108E0,1.431175420E1
1.278981351E1,-1.660263443E1,1.104873657E0,-2.422792435E0,1.681481903E1
1.279783948E1,-1.815028000E1,-2.076611519E-1,-2.379798412E0,1.830680823E1
1.280586545E1,-1.954260826E1,-2.148469448E0,-2.313203335E0,1.979596849E1
1.281389143E1,-2.025106812E1,-4.514916420E0,-2.249308109E0,2.086982552E1
1.282191740E1,-2.087192917E1,-6.971850872E0,-1.593745708E0,2.206318556E1
1.282991286E1,-2.197963905E1,-9.301866531E0,-7.326917052E-1,2.387815091E1
1.283793883E1,-2.367964935E1,-1.125230789E1,5.315759182E-1,2.622256279E1
1.284596480E1,-2.436614799E1,-1.183777523E1,2.176393509E0,2.717680591E1
1.285399077E1,-2.409283447E1,-1.110266590E1,3.705933094E0,2.678558947E1
1.286201675E1,-2.305500031E1,-1.018957520E1,4.833349228E0,2.566557512E1
1.287004272E1,-2.166679764E1,-9.482450485E0,5.441687107E0,2.426888843E1
1.287806869E1,-2.016301727E1,-9.531835556E0,5.316298008E0,2.292741109E1
1.288609467E1,-1.872337723E1,-9.805857658E0,5.411684513E0,2.181756239E1
1.289412064E1,-1.682775116E1,-1.012223911E1,5.020307064E0,2.026910005E1
1.290214661E1,-1.462133598E1,-1.012221241E1,4.871091843E0,1.843828044E1
1.291017259E1,-1.237940407E1,-9.749654770E0,4.789499283E0,1.646950869E1
1.291819856E1,-9.645189285E0,-8.699510574E0,5.006073952E0,1.392019888E1
1.292622453E1,-7.145136833E0,-7.374919891E0,5.043800354E0,1.144038224E1
1.293425050E1,-5.094956398E0,-6.134133339E0,5.041544914E0,9.434158555E0
1.294227648E1,-3.713814735E0,-5.156600475E0,4.936151028E0,8.046647458E0
1.295030245E1,-2.584928513E0,-4.402484417E0,4.762181282E0,6.981553912E0
1.295832842E1,-1.406701088E0,-3.327651501E0,4.500276089E0,5.771010079E0
1.296635440E1,8.540725708E-2,-2.345516920E0,4.042826176E0,4.674739298E0
1.297438037E1,1.779014111E0,-1.572070360E0,3.131408215E0,3.929632786E0
1.298240634E1,3.399334908E0,-8.286473751E-1,2.021135092E0,4.040683277E0
1.299043232E1,4.905646324E0,-1.881880760E-1,8.188449740E-1,4.977076220E0
1.299845829E1,6.508173943E0,1.842380762E-1,-5.577104688E-1,6.534624144E0
1.300648426E1,7.564894199E0,5.999485254E-1,-1.574167132E0,7.750197716E0
1.301451024E1,8.556570053E0,9.044194818E-1,-2.314839363E0,8.910182206E0
1.302253621E1,9.399444580E0,1.180235982E0,-2.685240984E0,9.846473203E0
1.303053166E1,9.856945992E0,1.335975766E0,-2.965613842E0,1.037974378E1
1.303855764E1,1.011859226E1,1.179580212E0,-3.334622622E0,1.071900307E1
1.304658361E1,1.056792831E1,5.652584434E-1,-3.447549343E0,1.113041879E1
1.305460958E1,1.096617126E1,-1.483739614E-1,-3.078352451E0,1.139101316E1
1.306263556E1,1.146608543E1,-6.220868230E-1,-2.887573957E0,1.184044723E1
1.307066153E1,1.184242630E1,-9.069508910E-1,-2.932753325E0,1.223383270E1
1.307868750E1,1.199244118E1,-1.114724398E0,-3.272337675E0,1.248076319E1
1.308671348E1,1.204905796E1,-1.645981193E0,-3.913977385E0,1.277529924E1
1.309473945E1,1.229840660E1,-2.367596149E0,-4.571152687E0,1.333235738E1
1.310276542E1,1.290213966E1,-2.948810101E0,-5.076533318E0,1.417504425E1
1.311079140E1,1.334260559E1,-3.305500746E0,-5.490367889E0,1.480187822E1
1.311881737E1,1.397107220E1,-3.534085274E0,-6.024405956E0,1.561966978E1
1.312684334E1,1.457089329E1,-3.761056185E0,-6.688959122E0,1.646811006E1
1.313486931E1,1.502034760E1,-3.818378925E0,-7.392668247E0,1.717097561E1
1.314289529E1,1.505314064E1,-3.513773441E0,-7.698745728E0,1.726888337E1
1.315092126E1,1.427553558E1,-2.856253147E0,-7.679737091E0,1.645987424E1
1.315894723E1,1.267800617E1,-2.329939604E0,-7.426335812E0,1.487652253E1
1.316694269E1,1.071478653E1,-1.960272551E0,-6.940590858E0,1.291592507E1
1.317496866E1,8.355326653E0,-1.354599118E0,-6.559731483E0,1.070871138E1
1.318299464E1,6.125598907E0,-7.701461911E-1,-5.946440697E0,8.571828515E0
1.319102061E1,4.101094246E0,1.208357215E-1,-5.248860359E0,6.662140073E0
1.319904658E1,2.055395126E0,1.291674018E0,-4.743351936E0,5.328457421E0
1.320707256E1,6.161909103E-1,2.190754414E0,-4.886927128E0,5.390839720E0
1.321509853E1,2.889537811E-1,2.784555435E0,-4.760338306E0,5.522505233E0
1.322312450E1,5.490126610E-1,3.345662832E0,-4.163016319E0,5.368945852E0
1.323115047E1,-1.644196510E-1,3.972758770E0,-4.020808220E0,5.654798388E0
1.323917645E1,-4.439611435E-1,4.163620472E0,-4.435999870E0,6.100076375E0
1.324720242E1,-2.973089218E-1,3.664702892E0,-5.155898094E0,6.332592284E0
1.325522839E1,-4.337925911E-1,2.799405336E0,-5.517124653E0,6.201895733E0
1.326322385E1,-1.451193810E0,1.734403253E0,-4.691578865E0,5.208169579E0
1.327124982E1,-2.605077744E0,1.471835136E0,-3.092137337E0,4.302794676E0
1.327927580E1,-3.415793419E0,1.567438126E0,-8.316135406E-1,3.849167188E0
1.328730177E1,-3.482112408E0,1.940024614E0,8.151154518E-1,4.068564307E0
1.329532774E1,-2.955881596E0,2.585429192E0,2.211106300E0,4.506736201E0
1.330335372E1,-3.262150764E0,3.080066204E0,3.899814606E0,5.944492358E0
1.331137969E1,-3.476292133E0,4.070696354E0,6.304188728E0,8.270306604E0
1.331940566E1,-3.436509609E0,5.096726418E0,1.008891964E1,1.181408134E1
1.332743163E1,-2.492639065E0,5.715467930E0,1.065841579E1,1.234834606E1
1.333545761E1,-2.492123604E0,5.122725487E0,1.066256905E1,1.208897742E1
1.334345306E1,-3.408863544E0,3.064202785E0,1.124578476E1,1.214402587E1
1.335147904E1,-4.003322601E0,1.092977405E0,1.217168808E1,1.285967271E1
1.335950501E1,-3.820959568E0,1.625154018E-1,1.252217007E1,1.309316182E1
1.336753098E1,-2.644956350E0,-2.782788277E-1,1.159646130E1,1.189752696E1
1.337555696E1,-1.866510868E0,-5.965757370E-1,1.103010273E1,1.120280910E1
1.338358293E1,-2.201330185E0,-1.375100017E0,1.087750340E1,1.118288133E1
1.339160890E1,-2.478127718E0,-2.241487741E0,1.040174580E1,1.092527802E1
1.339963487E1,-2.794217825E0,-2.739965677E0,9.566734314E0,1.033622129E1
1.340766085E1,-2.631516695E0,-2.751894474E0,8.797455788E0,9.586085314E0
1.341568682E1,-2.062303782E0,-2.787504673E0,8.365436554E0,9.055595393E0
1.342368228E1,-1.916247606E0,-2.822176456E0,8.343972206E0,9.014352834E0
1.343170825E1,-1.956379414E0,-2.867050409E0,8.118243217E0,8.829114984E0
