Time (s),Linear Acceleration x (m/s^2),Linear Acceleration y (m/s^2),Linear Acceleration z (m/s^2),Absolute acceleration (m/s^2)
0.131368472,-0.7177403449866666,-0.289953899386,0.7651486396680001,1.2974472131466668
0.139394443,-0.7148319244200001,-0.316335900626,0.7832165400100001,1.3085403200466668
0.147389896,-0.6725178082600001,-0.3146118481993333,0.78987509409,1.28674228648
0.155415868,-0.59384412764,-0.299677594506,0.8177339553699999,1.2817895276133333
0.163441839,-0.51029911042,-0.28526474635000004,0.8593685785699999,1.30093256348
0.17146781,-0.44534378052733337,-0.27711896896666666,0.9058593432366667,1.33139957848
0.179463264,-0.407053216314,-0.28072455724333334,0.9319168409033334,1.3464700726133334
0.187489234,-0.396089522054,-0.3101477146166667,0.9260503769033334,1.3378075978800001
0.195515205,-0.4049132824006667,-0.37782287598,0.8782102267166667,1.3267447568133333
0.20351066,-0.4072483539606667,-0.46748619081400006,0.8126251220633333,1.3380333854133333
0.211536631,-0.3993413766273333,-0.5623882691073334,0.76799160639,1.3737476357466667
0.219562602,-0.3902219613406667,-0.643899067214,0.76956698099,1.4293889750933333
0.227558055,-0.363208993278,-0.6983854214273334,0.83221766155,1.498953683833333
0.235584026,-0.3028468132046667,-0.7308254798206666,0.995072364842,1.62186965706
0.243609997,-0.18788466455133332,-0.731029272074,1.2715932528753333,1.8387738386133334
0.251605451,-0.018864981364666647,-0.7019528945206666,1.623176988022,2.1299479500133334
0.259631422,0.17745486888866668,-0.6706139564473332,2.00400822966,2.48944242508
0.267657393,0.34845649393533334,-0.666965460774,2.3198225339999996,2.8266427231333333
0.275652847,0.4491804122086666,-0.7083132982273332,2.4893863360666666,3.0239756128
0.283678818,0.470081678942,-0.8021501779833334,2.4805275281999997,3.0480368382
0.291704788,0.4242276667693333,-0.9343213876233334,2.3378255844533338,3.021606817266667
0.299700243,0.33278474801600005,-1.0867843946066666,2.0778924306533333,3.0862397088000004
0.307726214,0.23028971348933333,-1.22645943964,1.7188030243199999,3.2928023911333337
0.315721667,0.09363652862266664,-1.28124458002,1.3392690341066666,3.5863282684000004
0.323747638,-0.02893598877733335,-1.33584267302,0.9638631820933334,3.9000262400666665
0.331773609,-0.16069957420400002,-1.3662936290866667,0.5306570688866666,4.255078286333333
0.339769064,-0.2397956769306667,-1.4213677963533333,0.12456328071999997,4.552046112066667
0.347795034,-0.3193664074533334,-1.5194099347533334,-0.3040540060133334,4.8374835835333325
0.355790488,-0.4032158057466667,-1.6510709206866667,-0.7907433192800001,5.0524826808666665
0.36381646,-0.4891633987853333,-1.8067918619133332,-1.3535931906133334,5.138096081066666
0.371842431,-0.5538746516186667,-1.97736586738,-1.9493870736133334,5.1090912434
0.379837884,-0.6067953427519999,-2.140714168626667,-2.542235883213334,5.0033657746
0.387863855,-0.6132101376853333,-2.2512716691466665,-3.06470915488,4.908055996333333
0.395889826,-0.5691642760853334,-2.3214497884666665,-3.4701308887466666,4.879144917133334
0.40388528,-0.4431979815053333,-2.3588250716666668,-3.694596862946667,4.9458816168
0.411911251,-0.20742538771866667,-2.396769015,-3.3099013012,5.2866656816
0.419937222,-0.07927515510533331,-2.4017597675333335,-3.0692619960666665,5.272673787733334
0.427963193,0.06043856933666669,-2.4258061250000003,-2.7848587672866665,5.131953148466667
0.435958647,0.05927705760333337,-2.5369896252666666,-2.5512211800866664,5.051550171200001
0.443984617,0.017207193336666708,-2.4668321927333334,-2.3302005450866665,4.8984109952
0.452010588,0.06940593720333336,-2.2772220929199998,-2.0201681137533334,4.596793129066667
0.460006043,0.05177806220333337,-2.0700705846000003,-1.7390840530866667,4.343543963933333
0.468032014,0.011675842603333372,-1.8585382461333333,-1.3885726293086667,4.0686659981333335
0.476057985,0.044796506563333366,-1.5948167323933333,-0.9844170252419999,3.7747326376
0.484053438,0.10793640613533337,-1.3644854624933336,-0.5816536585753332,3.530233131266667
0.492079409,0.15003613630200002,-1.1869987884800002,-0.16747725804199992,3.387274269666667
0.50010538,0.15537294543533336,-1.0467400550533335,0.2474426905580001,3.3164476422666667
0.508100834,0.11921544870200004,-0.9498798687933333,0.6595268885580001,3.2964650711999997
0.516126805,0.038724525768666716,-0.8471079110933333,1.0610502561580002,3.3044999124666665
0.524152776,-0.15244986213799996,-0.73840450048,1.411639404358,3.3328328354
0.53214823,-0.48094032600466663,-0.6360767285199999,1.2355312983580002,3.129127473866667
0.540174202,-0.6659881034846666,-0.5376388311533334,1.2710666656913334,3.1679158958666664
0.548200172,-0.8785723367933332,-0.33779485226,1.3086293539113334,3.210273564533333
0.556195626,-0.79501455626,-0.08247342109999999,1.458528010138,3.0265827452666665
0.564221597,-0.5936053991466667,-0.04727218547999999,1.6743692716713334,2.8465667632000002
0.572247568,-0.4159389893666666,-0.14657306670666664,1.8295256933113335,2.7644124603333333
0.580273539,-0.18709460896666663,-0.20284895896666663,1.904588063638,2.7092565709333334
0.588268993,0.025137440366666666,-0.24868787129333333,1.8587174098533334,2.6812397974000004
0.596294964,0.13444156645333336,-0.3471236228933333,1.7218283335866669,2.6958936883333333
0.604320935,0.16705803872,-0.41955583492666665,1.5626061758200003,2.6936105623333333
0.612316388,0.11450589500000001,-0.45153361558666666,1.3682215373200002,2.5901851784
0.620342359,-0.008448521257333327,-0.47222493886666667,1.1678098043160001,2.4136544973666663
0.62836833,-0.182663297624,-0.50665698446,1.0012814204093334,2.2630611179666666
0.636394301,-0.3512234131573333,-0.5431236743666666,0.8645570119426668,2.1569549713666665
0.644389755,-0.4064000924506666,-0.5342464486533333,0.7083695730093333,2.030610520833333
0.652415726,-0.3386048793839999,-0.4973048607266667,0.5561470032093335,1.8632409074333334
0.660441697,-0.2265188137906666,-0.48005526857999997,0.4442688624493334,1.7070296795
0.668437151,-0.028663110730666616,-0.5261043945666667,0.3904802322493334,1.51759887816
0.676463122,0.0945200046113334,-0.5780903021199999,0.32772121430400003,1.4082590620533333
0.684489093,0.13089416029133336,-0.5552872379333333,0.22178999583066675,1.3490187189333334
0.692484547,0.08027926288333337,-0.5325064499933333,0.13072929382400006,1.3098951322533334
0.700510518,-0.006279691056666623,-0.5478416601533332,0.09457893371066675,1.2590457344866666
0.708536489,-0.0466946681433333,-0.5357768376406666,0.10893535613066674,1.2154263672666668
0.716531942,-0.0681499004233333,-0.498144483538,0.1678628285640001,1.1667458753200002
0.724557914,-0.10760826270999996,-0.47221717434466665,0.23246720631066672,1.1055697130933333
0.732583885,-0.14737432004333328,-0.453562716618,0.2842975616373334,1.06000541884
0.740579339,-0.16850570839266663,-0.4210089961446667,0.30579280852133345,1.03786691258
0.748605309,-0.16507815124599998,-0.355509595078,0.25380802153466675,0.9778238140733334
0.75663128,-0.1498532573793333,-0.29871973991679995,0.1251351674213334,0.9011844808066667
0.764657251,-0.1409150799793333,-0.2737591822968,-0.02337074282533326,0.8634289422066667
0.772652706,-0.12550168838599998,-0.23219504357013332,-0.16912854515866657,0.8507544090733334
0.780678677,-0.0873912891393333,-0.18468129635679997,-0.30331528986533324,0.8530139934733333
0.788704647,-0.03960267709266664,-0.14341238341013335,-0.4069905599319999,0.9051984788799999
0.796730618,0.019670128758666687,-0.11540098191413334,-0.47416451774666657,0.9732746036533333
0.804726072,0.07859932576533336,-0.11101878485413333,-0.4820851644133332,1.0183666896399999
0.812752043,0.1322749693666667,-0.10852810542746667,-0.43784688316199993,1.0321210272666668
0.820778014,0.14143925502666668,-0.1131442388008,-0.37217852276866653,1.0223704383533334
0.828803985,0.07424307659333336,-0.13560606639346667,-0.30474618278199994,1.0175287403133335
0.836799439,-0.018003249219999976,-0.15509812037613332,-0.26845944724866655,1.0033340703266667
0.84482541,-0.10542162263999998,-0.15732054710946666,-0.2518172582286666,0.9962836365133333
0.852851381,-0.16770842079999998,-0.13933552106946667,-0.2550056457819999,1.0049607004333334
0.860846834,-0.19487842723333332,-0.1264556884828,-0.28010126752199993,1.01691128408
0.868872805,-0.17475403153999997,-0.10976562500613335,-0.31331640881533324,1.00480916052
0.876898777,-0.1055934786873333,-0.09248747826066667,-0.33583443961533327,0.9712341978933333
0.884924748,-0.018200127260666634,-0.09118477504066667,-0.33711287182199995,0.9337918829
0.892920201,0.05350047351933337,-0.105221064888,-0.3128283818486666,0.8938591914466667
0.900946172,0.09075727464600002,-0.12092960675466666,-0.26473852791533325,0.8508313196133334
0.908972143,0.0780907511926667,-0.143307860688,-0.21618671416866655,0.8011848698533334
0.916967598,0.03071450791933337,-0.15580913225066667,-0.18246828715533325,0.7480489788933334
0.924993569,-0.013772825393999969,-0.14443968136333335,-0.18612893422866655,0.7136639980666667
0.933019539,-0.03891494273399998,-0.12528468767066667,-0.22235940297999993,0.69877099234
0.941014993,-0.0351677417673333,-0.10761373837066666,-0.2685625076333332,0.6956376067200001
0.949040964,-0.009153540923999972,-0.100571616484,-0.31703859965333325,0.6685715881000001
0.957066935,0.0076824645226666955,-0.10545808473733333,-0.34704532623466655,0.6489981109999999
0.965092906,0.017539439596000024,-0.10747230847066666,-0.3506051381413332,0.64174424352
0.97308836,0.042616047456000034,-0.10362884203066666,-0.33108336130799987,0.6300601732866667
0.981114331,0.08261954386666669,-0.09960034687733334,-0.30849844614799987,0.5998447313533333
0.989140302,0.1192706167666667,-0.116491572054,-0.29082851410133326,0.5776796048066667
0.997166273,0.14352303941400005,-0.14243981042733334,-0.2706915537546666,0.5614905766066667
1.005192244,0.15102909206733336,-0.15964984892866668,-0.24626744588799993,0.53985639072
1.013187697,0.14870755870733335,-0.17068924902799998,-0.23297983806133324,0.52737862498
1.021213668,0.12983276843933336,-0.19153203963466667,-0.23650404612799988,0.5311851228
1.02923964,0.12352363268600004,-0.1968198935146667,-0.23687184652133322,0.53052464806
1.037265611,0.12783432602600003,-0.18845613797400002,-0.23665447235466658,0.5308668286266667
1.045261064,0.12306618690600005,-0.179576142628,-0.2320086797146666,0.5241612770133334
1.053287035,0.09879396160600006,-0.18276174863066666,-0.22159595490133324,0.5024158068
1.061313006,0.05563537975266671,-0.189168659844,-0.20470104218133323,0.4853709311666667
1.069338977,0.021758314969333375,-0.18149382273733336,-0.18488019308133324,0.49332575553333335
1.077334431,0.00298484464933337,-0.157867670064,-0.16598498027333325,0.5012787798733334
1.085360402,-0.0006247689239999632,-0.12787097295466668,-0.1617201487333332,0.49774570743999996
1.093386373,-0.004684065770666631,-0.10517419179466667,-0.17601515453333322,0.48904320432
1.101412344,-0.012647684407999963,-0.08809197744133333,-0.19061559042666656,0.4865020682133333
1.109407798,-0.01595765351866663,-0.066077168788,-0.19782301585999992,0.48922778788
1.117433768,-0.0163458228053333,-0.040135161088,-0.19730663300666657,0.4925145184133334
1.125459739,-0.025948015845333298,-0.013144874580000002,-0.18601144155999988,0.4894899970066666
1.133455194,-0.04568755825066663,0.019329420713333333,-0.1569505691619999,0.4764581229933334
1.141481165,-0.059100697435999966,0.06894917487333334,-0.10197982788866658,0.46346255913333334
1.149507136,-0.0849770824093333,0.10468072890666667,-0.029203859968666583,0.4691710739066667
1.157502589,-0.12767472068266664,0.122877995166,0.06719118753800007,0.49307359108
1.16552856,-0.19108512401599997,0.12683986027266667,0.18156859077800008,0.5456501728533334
1.173554531,-0.258529863756,0.13917503356133334,0.30478839869800006,0.6356096165133334
1.181549985,-0.3056833257293333,0.16042569477333332,0.4228986739580001,0.7385120422466667
1.189575956,-0.33038303951599995,0.17157917022,0.5253706613446668,0.83000242256
1.197601927,-0.3326214621493333,0.15979410806666666,0.598907534218,0.89483129552
1.205597382,-0.3192814002493333,0.127613290144,0.654853947918,0.9431767660066667
1.213623353,-0.30600865185599996,0.07762611706400001,0.7166723886780001,1.0012669192933334
1.221649323,-0.2805558403359999,0.023214038210666667,0.7865403492713334,1.0700791004466665
1.229675294,-0.2711910098786666,-0.044143931076,0.8675168354713334,1.1397680849266665
1.237670748,-0.26872157355199994,-0.11033705076266667,0.9413547515313334,1.1842259961533335
1.245696719,-0.2549339979853333,-0.170463625596,0.9882425943446668,1.2063846726666667
1.25372269,-0.22844855089999996,-0.23197565078933333,0.9919137954146666,1.2240746432000003
1.261718144,-0.18982518811999996,-0.3038391908026667,0.9484360376413333,1.2530478738466668
1.269744115,-0.12746498684666663,-0.37223381996266663,0.8740903217946667,1.28448389524
1.277770086,-0.05882282753999996,-0.445536994936,0.7957905450813334,1.2943963721933334
1.285765539,-0.010247020426666623,-0.525419076276,0.7073432921926667,1.2754900176600001
1.29379151,0.044469087071333374,-0.5933228651613334,0.6112841288046668,1.22146494992
1.301817481,0.10955896948333338,-0.6303041934866667,0.5021375656013335,1.1279039437
1.309812936,0.12407576416333338,-0.6494753519600001,0.37847696940800013,1.04930900394
1.317838906,0.08765378369666671,-0.6518218994066667,0.2585795720413334,1.0213233600066667
1.325864877,0.01384771040333339,-0.6255019664679999,0.1484771728280001,1.0290202326733333
1.333890848,-0.0969786309233333,-0.5943461259146667,0.04251581825466678,1.06713282534
1.341886302,-0.2023963156433333,-0.5679094155613332,-0.048781458538666556,1.08092776354
1.349912273,-0.2649897051966666,-0.5362029552413333,-0.1273572921719999,1.0481290475866667
1.357938245,-0.32434149514333327,-0.5158028443613333,-0.18504816691066656,1.0212485626333332
1.365964215,-0.38838884364333326,-0.508197339368,-0.21062221526799987,1.01906300802
1.373959669,-0.4473471972366666,-0.496382252368,-0.20929164886159987,1.0195481915933333
1.38198564,-0.5136695477366666,-0.483054097488,-0.2077922821015999,1.0141610812733333
1.390011611,-0.5980810337233334,-0.47434495289466666,-0.20894667306826656,1.00139040738
1.398037582,-0.6873504731033332,-0.46146275201466663,-0.22918586730826657,0.9991401945133334
1.406033036,-0.7470803556766668,-0.43117322921466666,-0.26498305002626654,1.0056409451800001
1.414059007,-0.8116539071679999,-0.40789427756799995,-0.32089341481159994,1.03795638812
1.422084978,-0.8854950309733333,-0.416738812128,-0.3883507728749332,1.1105792602066666
1.430110949,-0.9129171690266666,-0.4219487190213333,-0.43300886155493323,1.1558701081
1.438106402,-0.9350293080933334,-0.4186271985346666,-0.43484958014159986,1.1764767120333335
1.446132373,-0.97733906116,-0.46220788955333336,-0.4204611142615999,1.2225684068999998
1.454158344,-1.0233051936266666,-0.5235193093466667,-0.37343753180826655,1.2803649267
1.462184315,-1.0312450012266667,-0.5398051420666666,-0.3479529381015999,1.2902981646333334
1.470179769,-1.0612557053933334,-0.51623074212,-0.33545757931879994,1.3127954326533335
1.47820574,-1.1323886593866666,-0.47667765615333324,-0.33008305234146657,1.3752568847400002
1.486231711,-1.2550963680933334,-0.43886017797333327,-0.32338399889746655,1.48950186486
1.494227165,-1.3993063569933333,-0.3946891148666667,-0.3062563260651999,1.6277792656266667
1.502253136,-1.5462874890533334,-0.32302751538666663,-0.2716014544385333,1.7604344105733332
1.510279107,-1.6918236335999999,-0.21652784342666667,-0.23356790544866657,1.8897442899999999
1.518305078,-1.8461460432466665,-0.08874258987333332,-0.19294404985466657,2.0310182333333335
1.526300532,-2.03069177082,0.018274704693333352,-0.16080764136799988,2.1974299087999998
1.534326503,-2.2345082164866663,0.08058238037333336,-0.1499155362679999,2.3796115757333336
1.542352474,-2.454107081953333,0.10793064443333335,-0.17653554280133324,2.5791467660666667
1.550347928,-2.7215064446666664,0.06287916510000002,-0.35437701546133327,2.9020258110666663
1.558373899,-2.9976359288666665,-0.044397195066666645,-0.7209254265079998,3.3570574542666667
1.56639987,-3.1858143728000003,-0.13770038276666663,-1.1601383527079998,3.7892893696666667
1.574425841,-3.1623541753333333,-0.20108998609999998,-1.5985767364546666,4.069977563066667
1.582421294,-3.037502050453333,-0.27455331479333334,-1.9567607243679999,4.332517321
1.590447265,-2.8592728456533334,-0.3525934695933333,-2.2746601740108,4.596803735666667
1.598473236,-2.6281392256533334,-0.4098458448799999,-2.5828351973961334,4.817614082133334
1.606499207,-2.3087053139866662,-0.45429155029999996,-2.9077179590227997,5.004398772
1.614494661,-1.9278572559199998,-0.4470215638333333,-2.8931921322494665,5.027140868466666
1.622520632,-1.4646867751866666,-0.40011944772666663,-3.2051793098028,5.2587904880666665
1.630546603,-1.0661763191199998,-0.36358609206,-3.537180201186,5.475782878733333
1.638542057,-0.6028709888533331,-0.4120984237333333,-3.894244162246667,5.706036098866666
1.646568028,-0.04892514545333319,-0.7165472667666666,-4.24468736646,5.996590672466667
1.654593998,0.46662515008000016,-1.11706384034,-4.613261349986667,6.3277889646666665
1.662589453,0.8616287867466669,-1.5274615288733335,-4.946331024186667,6.633903821066666
1.670615424,1.2099322001266666,-1.8629930497399998,-5.091328843386666,6.777307870733333
1.678641395,1.5986618996133335,-2.115764554473333,-5.03459593452,6.729910429133333
1.686636849,1.98432493216,-2.31547414474,-4.851388422653333,6.595530810866666
1.69466282,2.212566725426667,-2.5365373453399997,-4.6401680469199995,6.5522652885333335
1.702688791,2.2936578274133335,-2.8807071527400003,-4.460102272053333,6.678333624133333
1.710714762,2.39981657668,-3.36673652334,-4.3401640733199995,6.9695465268
1.718710215,2.55505854288,-3.9771451155733333,-4.23434190752,7.377091201333333
1.726736186,2.7434493700800004,-4.644310013533333,-4.109026034719999,7.829911796066666
1.734762157,3.001526165013333,-5.402430295806667,-4.3128225486,8.505602263666667
1.742757612,3.1826703389466666,-6.26545144694,-4.200019947733333,9.009104622533332
1.750783582,3.2717718442133337,-7.227074066873333,-3.931522456833333,9.5105615916
1.758809553,3.157890383413333,-8.215764347533332,-3.617395281786666,10.032312737199998
1.766805007,3.057731755546667,-8.972160498266668,-3.40548619432,10.525833598666667
1.774830978,2.9259402910800003,-9.6593529068,-3.1876605907866664,11.004990859400001
1.782856949,2.7930566469733336,-10.333550008266666,-2.945567091253333,11.508241865066667
1.790852403,2.736031977326667,-11.030884393200001,-2.7152914603200005,12.0667941904
1.798878374,2.6326792717066665,-11.779505634400001,-2.500917108786666,12.696463306333333
1.806873827,2.41475362776,-12.601202202,-2.32438455412,13.432044273066667
1.814899798,2.1162100474266667,-13.429830742,-2.1993194976533332,14.217944565533333
1.822925769,1.7313319842266668,-14.18104229,-2.1010387657866665,14.960801662066668
1.830921224,1.1529287020266668,-14.829969024999999,-1.9711350201866664,15.599210699999999
1.838947195,0.39022582376000003,-15.382932408666667,-1.8449889420533332,16.165523041333334
1.846973166,-0.5661795615733333,-15.869669978,-1.76518205792,16.703183228666667
1.854999136,-1.75114590304,-16.28360138,-1.74472714252,17.187493401333334
1.86299459,-3.0444667178400002,-16.581761488,-1.73813458272,17.637065466666666
1.871020562,-4.320260174573333,-16.677161408,-1.90497061402,18.102876450666667
1.879046533,-5.574428398906666,-16.570522054666668,-2.1486333369333335,18.55558833666667
1.887072504,-7.050747712039999,-16.319657326,-2.3787469545333333,19.037264895333333
1.895067957,-8.568965212439998,-15.8875720342,-2.6970088004666666,19.574750804666667
1.903093928,-10.106538899733332,-15.296356360266667,-3.1649719874,20.230495558000005
1.911119899,-11.787525748933335,-14.548362064466666,-3.8596868830666664,21.066173459333335
1.919115353,-13.538925043599999,-13.585637251733335,-4.806320126666666,22.060585214000003
1.927141324,-15.251746813133334,-12.3390113514,-5.927600542733333,23.114777526666668
1.935197812,-16.8466484068,-10.858703836,-7.182523918266667,24.178171557333332
1.943223782,-18.275116220933334,-9.225817426133334,-8.586417897733332,25.238876459999997
1.951219237,-19.547511927333336,-7.5751855532666665,-10.157983462133334,26.329529202666667
1.959245208,-20.638485654,-5.985665130933333,-11.838370005733333,27.413708264666663
1.967271179,-21.503820482666665,-4.495324071333333,-13.4708126072,28.374882198
1.975266632,-22.17209885933333,-3.1389138538666668,-14.958509731600001,29.172818962666668
1.983292603,-22.688632584,-1.984297625133333,-16.257679621666668,29.805550938000003
1.991318575,-23.020671845333332,-1.1337412195999998,-17.329803212999998,30.27147045933333
1.999314028,-23.13156039,-0.5372064589333332,-18.153328864,30.514631357999995
2.007339999,-22.977759425333332,-0.1826343219333331,-18.73067175586667,30.516073654666666
2.01536597,-22.526403300000002,-0.02636137013333316,-19.0880231228,30.267169459999998
2.023361425,-21.673938115333332,-0.08856232966666647,-19.241026370666667,29.714160218
2.031387396,-20.2373769444,-0.37177378346666645,-19.072077879333335,28.736029772
2.039413366,-18.58331305193333,-0.8808386488666664,-18.619483758,27.535337015999996
2.04740882,-16.6930557889,-1.7348672231999998,-17.927153079533333,26.236497148666665
2.055434791,-14.871587212973333,-2.8041145326000003,-17.094271883133334,24.890543002
2.063460762,-13.07737967184,-4.033350531133333,-16.174362787266666,23.571061132
2.071456216,-11.298523108040001,-5.275601068666666,-15.088481681266666,22.195399484
2.079482187,-9.40246998484,-6.408599249,-13.862858931666667,20.778790923333336
2.087477641,-7.393005816373333,-7.4203071906,-12.577073065933332,19.47274818
2.095503611,-5.037144025039999,-8.770769404733333,-11.221971448866666,18.82776479
2.103529582,-2.52374998704,-10.396989026799998,-10.526395607533335,18.911923837333333
2.111525037,-0.05145765903999973,-11.758962249,-9.639457512200002,18.987980321333332
2.119551008,1.9061733249600006,-12.496979808333332,-8.6125767396,18.565524505333332
2.127546461,3.64711214716,-12.617166073666665,-7.513398902,17.879745292
2.135572432,5.094186210626668,-12.196568981373332,-6.698683039473333,17.002283636266665
2.143598403,6.140016237826668,-11.510843435439998,-5.882944456553333,16.139373045133333
2.151593857,6.466710185946667,-10.836611953859999,-5.223134009013333,15.222414284420001
2.159619828,6.491352939546667,-10.166655555533334,-4.627026367173333,14.451354898286667
2.167615282,6.152398713379999,-9.319685093,-4.106406338974667,13.845842470886664
2.175641253,5.745395596786667,-8.420185922933333,-3.5950513839206666,13.33602300962
2.183636707,5.195798524186667,-7.521711865666666,-2.9630854924539998,12.83505020802
2.191662678,4.60972544352,-6.708082016233333,-2.2961670398539997,12.313830265953333
2.199688649,3.8312999725200005,-5.906198382393333,-1.6930307229206665,11.80919774442
2.207684102,3.0494025230533333,-5.2230675778133335,-1.114879719387333,11.092593629819998
2.215710073,1.9432335852533338,-4.1488060396133335,-0.6986308574539998,9.78127529402
2.223705528,0.7758802732220003,-2.6616661472466663,0.23084955207933336,7.84709052562
2.232433389,-0.2816084861113331,-1.2660786710466667,0.7929742812126667,6.12499002322
2.239787987,-0.9245125135113331,-0.2631921688466667,1.036069265946,5.0759651299533335
2.247783441,-1.451591873178,0.3064169566266667,1.0388390222126667,4.43921695902
2.255809411,-1.8733542124446665,0.5373839220000001,1.0928747811826667,4.131177660953333
2.263835382,-2.152953497591333,0.6127172311333333,1.0146792092626666,3.98837986922
2.271861353,-2.093483066578,0.6318323771400001,0.8765973248560001,4.123467041466666
2.279887324,-1.7971493085113333,0.56343915468,0.7252360024826667,4.199537973
2.287913295,-1.2099259058446665,0.30221610867999993,0.5935398259506667,4.229987956466667
2.295908749,-0.48722394304466654,-0.11535798705333337,0.3714316207633333,4.303859957733334
2.30393472,0.30562973022200013,-0.5130364576533334,-0.0021359921699999635,4.360734782866667
2.311838624,1.0443701425553336,-0.7728417872866667,-0.4664783161033333,4.4137111175333335
2.319864594,1.7461049079553335,-1.02663761766,-0.9607289951033334,4.470724010533333
2.327890565,2.248064168288667,-1.2141504605066666,-1.5425142607033335,4.7555904645333325
2.476973884,2.381829023322,-1.17025734578,-1.7123531978166668,4.59418934876
2.484999855,2.3660203297533338,-1.1271060307266667,-1.86024854983,4.464861361393333
2.493025826,2.2282654762200003,-1.0656853674993334,-1.98056832951,4.30358272836
2.501051797,2.09668223066,-1.075020646962,-2.0894431909366666,4.1734090736
2.509077768,1.95323115192,-1.1251259882353333,-2.1686998208633335,4.0585145256
2.517073222,1.842942357106667,-1.292999434402,-2.1022794882933336,3.947814944333333
2.525099193,1.7511292299066668,-1.477619163122,-1.9730264505000001,3.8096902807333333
2.533125164,1.61985998158,-1.524214768342,-1.7677650769533335,3.680058551
2.541151135,1.4566360155933333,-1.4519058227173334,-1.5562221686333335,3.49526863186
2.549177106,1.1693866650266669,-1.2667215188086667,-1.3930600802333333,3.17283264692
2.557203077,0.8370680014040003,-0.9716409524246667,-1.1585769017466667,2.7022066632533335
2.565198531,0.5140803734506668,-0.6682578881533333,-0.8507934252413334,2.17330816788
2.573224502,0.23945532643066686,-0.4138275623340001,-0.5012051582526668,1.66705379418
2.581250473,0.014395833037333512,-0.2035138130533334,-0.08744516373333336,1.1593758985266667
2.589276444,-0.2180449088426665,0.02007888157999994,0.3661038398613333,0.61580085362
2.597302415,-0.18892548878933318,0.0538432757066666,0.40189851123933334,0.5927494017666667
2.605297868,-0.15479606786933314,0.08663816451999994,0.405597686756,0.58783516184
2.613323839,-0.12045880158933316,0.10944801966599994,0.3813778559226667,0.57106266188
2.62134981,-0.08796827793599983,0.11956237157533328,0.333844629912,0.5260575885
2.629375781,-0.06030007203599983,0.11882187525533329,0.27660795846533337,0.46472123116666675
2.637401752,-0.03745245934266649,0.11386795044199993,0.2254758199186667,0.4098049333066667
2.645427723,-0.02087040742933316,0.10351187388666662,0.18253796896533336,0.36560066807333336
2.653423177,-0.021665883069333158,0.08502766291999994,0.14580186209200005,0.3415332379866667
2.661449148,-0.033147501949333164,0.0677916526886666,0.11775461833866668,0.3325564873066667
2.669475119,-0.04247867266933315,0.05385173162666661,0.10046259563200004,0.32882548144
2.67750109,-0.04442307154666649,0.04880822500466661,0.09533303579200005,0.3249149217333334
2.685527061,-0.04315446218199983,0.052845096596666606,0.10077826182666669,0.3313370479466667
2.693522515,-0.042060963315333155,0.06093533834399994,0.11163311005133335,0.33808914592
2.701548486,-0.039574758215333156,0.07081925074999994,0.12180608114133336,0.34437991761333336
2.709574457,-0.03835724194866649,0.08168751398999995,0.12499599457333337,0.35111793022000004
2.717600428,-0.03632542292199982,0.09189278284999995,0.12067610423333336,0.36004825417999997
2.725626399,-0.03612078825533316,0.10029799143666661,0.11481997172600003,0.36759857152000003
2.73365237,-0.044716151551333155,0.0991145133966666,0.1040143330926667,0.36566053519999997
2.741647823,-0.05115544795599982,0.0946323394766666,0.08397172292333337,0.36849616543999997
2.749673794,-0.05415884653599982,0.08944285710533327,0.05120849609666669,0.38009968683333334
2.757699765,-0.054031165435999826,0.07802855173866662,0.002993615470000029,0.39308239846666665
2.765725736,-0.053427537275999824,0.06350545883399995,-0.057361443836666644,0.4145167065466666
2.773751707,-0.04574636617599982,0.0512897809406666,-0.11787223816333331,0.4336464740933333
2.781747161,-0.04056731858933316,0.035920174920666605,-0.17145961126333328,0.45222375559333333
2.789773132,-0.04833322364933316,0.013151899980666607,-0.21584075293,0.48049881228666663
2.797799103,-0.07105953692266649,-0.02012364068800006,-0.25476986567666665,0.5195666713666667
2.805825074,-0.10581382909399982,-0.05931673049133339,-0.2841110547433333,0.5516217135199999
2.813851045,-0.13994921842066652,-0.09610907235800005,-0.29746675491733326,0.56622527436
2.821877016,-0.17282967566733318,-0.12983039219133338,-0.29035959244,0.5673818025066666
2.829902987,-0.20887357393399983,-0.17186606723800005,-0.2609679857933333,0.5778872374666667
2.837898441,-0.2371119976006665,-0.21404403049800008,-0.22780764897799996,0.58100055416
2.845924412,-0.24896620114599982,-0.2578896840313334,-0.1937725385073333,0.58605623988
2.853950383,-0.23965109984333313,-0.28797515232466675,-0.15944681168066666,0.6000836294666667
2.861976354,-0.21850047906533318,-0.30817365645800004,-0.11965939204066664,0.6128479522666666
2.870002325,-0.18088981310533317,-0.3181220372466667,-0.07591791153399999,0.6211231675866667
2.878028296,-0.1317601680786665,-0.3168614705400001,-0.03368441264733331,0.6183043869533333
2.886054266,-0.07327303886533315,-0.3066157658866667,0.007899347931333369,0.6069318138933333
2.894080237,-0.01200533708533315,-0.2925868034333334,0.0414262453646667,0.5908307241533333
2.902075691,0.049742611241333515,-0.27637066840666674,0.05966701507133337,0.57664204008
2.910101662,0.10739920933466686,-0.25711270968000005,0.061638704931333374,0.5630597121933333
2.918127634,0.1600027561080002,-0.23163348834000005,0.05346101124466672,0.5518656419933333
2.926153605,0.2097320477080002,-0.2016769568146667,0.040832519524666704,0.5415364075266667
2.934179575,0.2603019952680002,-0.16662104924800006,0.02871055602533338,0.5425148264199999
2.942205546,0.31734167734133345,-0.13065730731466674,0.02024167378066671,0.5632624941466666
2.950201,0.3821626345280002,-0.08032499950133339,0.010544840487333377,0.58378177886
2.958226971,0.4453745921413335,-0.023101997381333384,0.0027638753140000415,0.6190236433666667
2.966252942,0.5005508422800002,0.03618025779199995,-0.0043005625459999605,0.6582054009333334
2.974278912,0.5527105569800003,0.08657449085866661,-0.015520095825999959,0.70048882586
2.982304883,0.6009669105200002,0.12236871719199996,-0.02731533050599996,0.7402741082933333
2.990330854,0.6228531837466669,0.14226091702533328,-0.021405029292666626,0.7626795252666665
2.998326309,0.6200253049533335,0.1510493596393333,0.016197458907333376,0.7845978528933332
3.00635228,0.5974837223666669,0.15310525893799995,0.08468316399533338,0.8162519263066667
3.014378251,0.5683453798266669,0.15182696977799998,0.1795723597486667,0.8606287612533332
3.022404221,0.5427363117533336,0.1514655431046666,0.29074465437533337,0.9089421115133334
3.030430192,0.5346245408000001,0.1511131445513333,0.4055568695553334,0.95273358498
3.038456163,0.5423589944800002,0.14906039237799995,0.5107522964753334,0.9877760138733332
3.046482134,0.5617320299066668,0.13768998781933328,0.5930008570620001,1.0188131752133334
3.054477589,0.573914651066667,0.11179224650599995,0.6393014272286667,1.0385688498666665
3.062503559,0.5723871588600001,0.07427986463933328,0.6539552053066668,1.0412000846666667
3.07052953,0.5602695663600002,0.020346291872666615,0.6523418426800001,1.0299496567266666
3.078555501,0.5346961438466669,-0.04654108682066672,0.6541030884066666,1.0070127564133333
3.086581472,0.4971821923866669,-0.12029735246066671,0.6632013956933335,0.9836383637666667
3.094607443,0.45395986634666685,-0.19754877088733339,0.6814661026200001,0.96630430794
3.102633414,0.4059070765800002,-0.27439042725400004,0.69428304038,0.9544568050066666
3.110628867,0.3774670799400002,-0.3495309988473334,0.6854335149266667,0.9655289498533333
3.118654838,0.3742512802133335,-0.4228379726213333,0.6410405477053334,0.9852492421533334
3.126680809,0.38992271223333347,-0.49528136252666677,0.5578905105453333,0.9999506475533334
3.13470678,0.4109009802266668,-0.5663674831266667,0.4433460235520001,1.00772371602
3.142732752,0.4286096135666668,-0.63597372372,0.30966637927199997,1.01423011462
3.150728205,0.43643281856000016,-0.7005927244666666,0.17398592627866669,1.0256511012866667
3.158754176,0.43417324621333353,-0.7555666287266668,0.05542996723200003,1.0352255865533333
3.166780147,0.42372510035333355,-0.7922077655333334,-0.040569559747999966,1.0410129525533334
3.174806118,0.41664779980666683,-0.8147324561666667,-0.11161924999466664,1.0532767454266667
3.182832089,0.41405160029333354,-0.8204761027933335,-0.16628328960799996,1.0639114738866666
3.190827543,0.4186377882933335,-0.8107194264400001,-0.22260144553466663,1.0755963232066668
3.198853514,0.4353574574000002,-0.7911892572733333,-0.287599881508,1.09407874118
3.206879485,0.4651101648800002,-0.7636880874333334,-0.3654035568413333,1.1145606865600002
3.214905456,0.49841744502666685,-0.73142959274,-0.44786033632133326,1.1313139735200002
3.222931427,0.5363217413400001,-0.6934462547066667,-0.525083478308,1.1481501169866666
3.230926881,0.5729913552533336,-0.6465771198,-0.5967627843413332,1.1606506429866668
3.238952851,0.6054886162200002,-0.5912790298200001,-0.6565039317,1.1673217168533332
3.246978822,0.6341303805400001,-0.5256138642266668,-0.6960009257199999,1.16405009332
3.255004793,0.6680745104800001,-0.44765199022600005,-0.7158236185933333,1.1529537043866669
3.263000248,0.7072544614333335,-0.3661773840266667,-0.7237552007266665,1.1395020884533333
3.271026219,0.7428525487466668,-0.29196176526333334,-0.7281357447533333,1.1247268548533331
3.279052189,0.7707079489933335,-0.23417124749000007,-0.7415802637933333,1.1211037322533335
3.28707816,0.7923276980600001,-0.19455189705666676,-0.7555463155266666,1.1257617707866667
3.295104131,0.8072580218200002,-0.16056807836400008,-0.7647266388066666,1.1296677469199998
3.303099586,0.8163097460933335,-0.1331271648433334,-0.7717868805066667,1.13530838824
3.311125557,0.8179025610200001,-0.10663652420333339,-0.77497673036,1.1373042348666664
3.319151528,0.8118358015933336,-0.08214459419666673,-0.7760196685933334,1.1348973203666666
3.327177498,0.8003908594400002,-0.055451679236666725,-0.77151527406,1.1265892335933332
3.335203469,0.7865110595933336,-0.017370716736666725,-0.7546593984066665,1.1119360439666666
3.343198923,0.7719008088066669,0.033376264569999946,-0.7251520156933334,1.0951762967133334
3.351224894,0.7548772176066669,0.09157101312999995,-0.6820072174133334,1.0744186810266667
3.359250865,0.7331015308666669,0.15090053875666662,-0.6313728968366665,1.0489003392466667
3.367307353,0.7062980492866668,0.2054404099766666,-0.580799547836,1.02127668052
3.375333324,0.6734788060133335,0.24831897417599996,-0.5340094248473333,0.9896632974733333
3.383359295,0.6341489553400003,0.28730258941666664,-0.48491611480666663,0.9522131819533333
3.391354749,0.5958478490466668,0.33271408081333326,-0.42603727976133327,0.9151813135533333
3.39938072,0.5641827384533334,0.38329888979999993,-0.3502101898146666,0.8814820629799999
3.407406691,0.5386799375133334,0.4352130572,-0.2658522287946666,0.8585089277066665
3.415432662,0.5173813025066668,0.47417842547399996,-0.18566347757466664,0.84078029402
3.423458633,0.4974832296333335,0.49289285341999994,-0.11951522826799993,0.8162860532266668
3.431454086,0.4819910208333335,0.49350783030666656,-0.06595338185466662,0.7860773401866666
3.439480057,0.46813877820666683,0.48338724772733327,-0.024673461910666616,0.7506623151333333
3.447506028,0.4550510565400002,0.4671163400093333,0.007624626162666717,0.71734734878
3.455531999,0.4443967580800001,0.4492075602293333,0.02143624623600005,0.6946823132066666
3.46355797,0.43970636924000017,0.4292642275559999,0.020492553709333384,0.6811302871466667
3.471553424,0.4423410375933335,0.41240069071599994,0.007380104062666722,0.6770439338866667
3.479579395,0.45509433746666683,0.39782640139599995,-0.010033925373999945,0.6815906235733333
3.487605366,0.4787854035733335,0.39086076418933324,-0.02917073567466661,0.6982949708999999
3.495631337,0.5090067863533335,0.39316075642933324,-0.04794495900333328,0.7254852112800001
3.50362679,0.5476702173666669,0.4038988431293333,-0.06097539265733328,0.7618927549333333
3.511652761,0.5860084057000001,0.41533389090933326,-0.07637017567599995,0.7967495202
3.519678733,0.6201533476666669,0.4243577639226666,-0.10849793752266662,0.8258506755733334
3.527704704,0.6513841867600002,0.4327228228226666,-0.15005550384933328,0.8474765657133333
3.535700158,0.6803316076733334,0.4451611995626666,-0.1920991897626666,0.8686156637333333
3.543726128,0.7141572435800002,0.46450107891599995,-0.22184950510933327,0.9016878094333334
3.551752099,0.7411286592600003,0.48546272912933325,-0.2401831309026666,0.9338570240666667
3.55977807,0.7617574016333336,0.5075267950619999,-0.24540456135999994,0.9616401003
3.567804041,0.7797015508066668,0.5283488432466666,-0.24472274779999995,0.9843529701133333
3.575799496,0.7940435250600003,0.5383276939266666,-0.2376473108866666,0.9975510389533333
3.583825467,0.8039601445200001,0.5403324444933333,-0.2249713897666666,1.0023426513466667
3.591851437,0.8092007795933335,0.54007509548,-0.20492897033066662,1.00128415644
3.599877408,0.8070771773600002,0.5458797295733332,-0.18504587808866663,0.9983461247466666
3.607872862,0.8011230548200001,0.5519977887333333,-0.16294053395466662,0.99328224284
3.615898833,0.7884092489866669,0.5550665060599999,-0.13622283935333326,0.9818410937333333
3.623924804,0.7635923226600002,0.5526161988466666,-0.11251633961999995,0.9608064104133334
3.631950774,0.7319250663000002,0.54363009134,-0.09377085367999996,0.93186488338
3.639946229,0.6967468142400002,0.5313917159933333,-0.07296613057333329,0.8974792540933334
3.6479722,0.6576309660933336,0.5151510238533333,-0.05981254577599995,0.8581417897066667
3.655998171,0.6141889035600001,0.49978068668666664,-0.04796428680367995,0.8170881734666666
3.664024142,0.5649257361800001,0.4936389605133333,-0.03275006612367994,0.7797711610533333
3.672050113,0.5200851341000001,0.5016609509666666,-0.01087932586367995,0.7593804363133334
3.680106601,0.47994155684000017,0.5166457494,0.017574373882986716,0.7509359846133333
3.688132572,0.4332928756793335,0.5326497077866666,0.050942611696320056,0.7457553808466667
3.696128025,0.37470378875266686,0.5455820719333333,0.08926703134965337,0.7421105823533334
3.704153996,0.30016560951266685,0.5481848716666666,0.1287485758496534,0.7383591918266666
3.712179967,0.21355279683933354,0.5384489695199999,0.17015419006698673,0.7398699057333332
3.720205938,0.11827457348600018,0.5156013170866666,0.2205818812116534,0.7497216087866667
3.728201392,0.01812905470600017,0.48768542607333326,0.2803288141976534,0.7624435374933333
3.736227363,-0.0700466434206665,0.4631545066799999,0.3462919871363201,0.7802032867333334
3.744253334,-0.13678313692733318,0.44212884902666655,0.4218423843629867,0.8094865695200001
3.752279305,-0.18203036884733315,0.4278609911599999,0.5104580561496533,0.8569256350866666
3.760305276,-0.20748883783999983,0.4155876795466666,0.61354624429632,0.9215453343066666
3.76830073,-0.21676039397999983,0.4060640017266666,0.7315820693789868,1.0031336600266667
3.776326701,-0.21511983375333316,0.3945202191733333,0.8573747634533333,1.0981111201333333
3.784352672,-0.21142102579999986,0.37113968531999997,0.9829190572066667,1.1955565125466667
3.792378643,-0.20960379541999982,0.33218758901999995,1.1073607762866666,1.2911354367133332
3.800374097,-0.21383596162733318,0.2826093991666666,1.2287901560333334,1.3855180400066667
3.808400067,-0.21985845467333315,0.22089443207333329,1.3462927500266666,1.4811510442866667
3.816426038,-0.2218214660999998,0.15353612899999997,1.4547084172200002,1.5756326882066667
3.824452009,-0.21916270753999983,0.09089749654666661,1.5516487120866667,1.6636597463866667
3.832447464,-0.21079153121999986,0.029458522799999942,1.6306557337,1.7360744466
3.840473435,-0.19846020044666648,-0.028121026353333394,1.6841002781733334,1.7839412978
3.848499406,-0.18777415257333316,-0.08844615618000005,1.7101921716666668,1.8100523378666666
3.856525376,-0.19044908981999983,-0.15610761642000004,1.7043031055800002,1.8176850494
3.86452083,-0.2142202268199998,-0.2336339473666667,1.66493593844,1.811619655
3.872546801,-0.25975693267333316,-0.31825335820000006,1.5931379317533332,1.7976574304666666
3.880572772,-0.32508677644066647,-0.4075696309400001,1.4915029525299999,1.7815327703333332
3.888568226,-0.40870348218066643,-0.4985719998666667,1.3603202183699998,1.7645133799333335
3.896594197,-0.5052689771006664,-0.5893899599733333,1.2065952300833334,1.7483161582666669
3.904620168,-0.6077874620606666,-0.6746527671933333,1.0350066502433335,1.7350315064666664
3.912646139,-0.7147013385739999,-0.7503272374466667,0.8474465687366667,1.7265493604
3.920641593,-0.8210591931466665,-0.8150561333000002,0.6454537073366667,1.7267014117333335
3.928667564,-0.9248054960933331,-0.86725883488,0.4326073646033334,1.7377177619333333
3.936693535,-1.025544436713333,-0.9090647379933334,0.21784785587000008,1.7590743668000002
3.944719506,-1.1215757230199999,-0.9447277705333333,0.007507165270000075,1.7906388005333334
3.952714959,-1.2138754208,-0.9745869636800001,-0.19628397626333324,1.8309824390666667
3.96074093,-1.29917657764,-1.0045997620066667,-0.3868283907966666,1.8832628364
3.968766901,-1.3769765495466664,-1.0322432359333333,-0.5603114445966665,1.9430751707333334
3.976792872,-1.4465156752866664,-1.0570382118666666,-0.71421502431,2.0139112914666666
3.984788327,-1.5037760335933332,-1.0742841879933331,-0.8459062576366666,2.084693766
3.992814298,-1.5439332086666666,-1.0812717915,-0.9522306124166666,2.1443615342
4.000840268,-1.5705281335999999,-1.0774491946333336,-1.03860549926,2.1898758306
4.008866239,-1.5849246023999999,-1.0657034079666667,-1.1035276730999999,2.2199398302666666
4.016861693,-1.5852906544,-1.04882132216,-1.1550298054799997,2.234317597733333
4.024887664,-1.5706353107333333,-1.0307304859466668,-1.1972875595066665,2.235854949733333
4.032913635,-1.540816831533333,-1.0130777041533334,-1.2316108386000002,2.225612622466667
4.040939605,-1.4945524096266667,-0.9969516595266668,-1.2593481064,2.2050585983333333
4.048965577,-1.4348011890599999,-0.97741934458,-1.2804722467999998,2.1727445411999997
4.056991548,-1.3662456432666665,-0.9483643849666668,-1.2993756294,2.1312462934666665
4.064987002,-1.292523773493333,-0.9081596056533333,-1.3185282070666666,2.0841049296
4.073012973,-1.2169682542466664,-0.8579457601,-1.3384531656,2.035653943933333
4.081038944,-1.144399472073333,-0.7929278373666667,-1.3588160514,1.9877580242666668
4.089064914,-1.0778203010466665,-0.7167905489733335,-1.3799146016,1.9441417760666666
4.097060369,-1.0171778599533332,-0.6304642677333335,-1.4005516687333333,1.9057510244666667
4.10508634,-0.9628165324866665,-0.5416160901466667,-1.424773693,1.8760217659333336
4.113112311,-0.9166185697133332,-0.45668193500000004,-1.4537366548666666,1.8575436573333335
4.121138282,-0.8762088497533331,-0.37586399714666674,-1.4863607406,1.8474021988000002
4.129164252,-0.8395802219666665,-0.3012716452333334,-1.5241339364666666,1.8453294414
4.137159706,-0.8044493635466665,-0.23003613154666672,-1.5648989358666667,1.8486136564666666
4.145185677,-0.7728755076733331,-0.1589770793933334,-1.603153928,1.8530699187333333
4.153211648,-0.7386183778466665,-0.0864937782333334,-1.6374114035333334,1.855372718933333
4.161237619,-0.7050754984266664,-0.010956398653333392,-1.6615840592666666,1.8525720385333335
4.16926359,-0.6715893665999998,0.0690871874466666,-1.6735736846,1.8428084784666665
4.177259044,-0.6401071071666665,0.1479006131466666,-1.6658494948666667,1.821263759066667
4.185285015,-0.6151473641399999,0.22009951273333328,-1.6376009940666665,1.7885445457333335
4.193310986,-0.5979990283666665,0.28145478566,-1.59089806872,1.7452730662
4.201336957,-0.5851744214733332,0.3256951649933333,-1.5314820607066664,1.6949024052000001
4.209362928,-0.5776562015266665,0.35503438313333324,-1.46572825108,1.6431078395333332
4.217388898,-0.5678303956999998,0.37410840987999994,-1.3937826792066665,1.5860534831266666
4.225384353,-0.5551202495933332,0.3907793680866666,-1.3154870033,1.5243987768333334
4.233410324,-0.5404228170733331,0.4126196861333333,-1.2292569478,1.4621642874866665
4.241436295,-0.5220165491133332,0.4448870023133333,-1.1330607731733333,1.4004658968866663
4.249462266,-0.5018420775799998,0.4888414382933332,-1.0247578620666666,1.3413925501533333
4.257457719,-0.48898345232666646,0.53929522832,-0.9077656428006666,1.28594040122
4.26548369,-0.4878655195333332,0.5934446016866666,-0.7845392227333333,1.2379130310866666
4.273509661,-0.5017016689066665,0.6473045984666665,-0.6539791107066666,1.19885953822
4.281535632,-0.5276367068333331,0.6954641023933331,-0.5213524818466666,1.16727731102
4.289531086,-0.5575511852933331,0.7326657930666667,-0.3914052645133333,1.1400107657533336
4.297557057,-0.5843077937799998,0.7594311713866666,-0.27007935839999997,1.1218879514866666
4.305583028,-0.6000920335533331,0.7796835899066666,-0.1577631314466666,1.1138479206866667
4.313608999,-0.5955286701599999,0.7981177011866667,-0.051656341539999935,1.1121267074199999
4.321604452,-0.5731609185599997,0.8168769518333333,0.05524279278000006,1.11961277442
4.329630424,-0.5362242579499998,0.83283933002,0.1652760823733334,1.13240910362
4.337656395,-0.4988012830479998,0.8434176444866667,0.2801016489666667,1.1540528354933335
4.345682366,-0.4664966146213331,0.8438975651866667,0.3953379313266667,1.1793790999199998
4.353708337,-0.4392676790613332,0.8315987904666666,0.5053590138933334,1.2047733224000001
4.36170379,-0.4235042373413332,0.8034629185799999,0.6062516530666667,1.2265798833333332
4.369729761,-0.41796913147466647,0.76055437722,0.6965829849600002,1.2433346901333333
4.377755732,-0.4124733269279998,0.70709889728,0.7795785268273333,1.2546309664666666
4.385781703,-0.3981721242279998,0.6517713864533333,0.85464903516,1.259544262
4.393777158,-0.37167078256799985,0.6023374875466666,0.9162036896000001,1.2552544014666667
4.401803129,-0.3348462859813332,0.5570265770133332,0.9722911199400001,1.2488237162
4.409829099,-0.28851463397333316,0.5079189936466666,1.0249068578733334,1.2431925201333334
4.41785507,-0.23886704047599983,0.44664649964599995,1.0724056880266668,1.2408252058666667
4.425850524,-0.18179540236266648,0.3731268247126666,1.1158253352733334,1.2464120851999998
4.433876495,-0.13048340478933318,0.28975979488599996,1.1582075120200002,1.2668780730666669
4.441902466,-0.08522846300933316,0.19922258060599995,1.1968586604866667,1.2962466958666667
4.44989792,-0.04537757237266649,0.10692683856599992,1.2377140046,1.3356542910666667
4.457923891,-0.005673968787999824,0.012105735145999944,1.2828467052,1.3841504519333332
4.465949862,0.03148009379866685,-0.07921193440066672,1.333496221,1.4402796368666666
4.473975833,0.0675103584920002,-0.16905277569400004,1.3878409068666666,1.5016948234
4.481971287,0.10790256659200018,-0.2586306571873334,1.4424741110000001,1.5660594448
4.489997258,0.15377811987866685,-0.34986499152066675,1.4905947367999999,1.6274401644
4.498023229,0.2014599064920002,-0.4369074503673334,1.5335740408,1.6868553966666666
4.5060492,0.25109000205200016,-0.5207525730073335,1.5615892410666667,1.7338506918
4.514044653,0.28915217716533353,-0.609413464834,1.5783578237333333,1.7705788247333334
4.522070624,0.31455746887866687,-0.7031199613673335,1.5829955419333333,1.7992171572000002
4.530096595,0.3200579186153335,-0.7945307571873333,1.5716296514133334,1.822511137
4.538122566,0.3083919296513335,-0.8857066789533334,1.5441219965933333,1.8507494881333335
4.546118021,0.2777906169313335,-0.98106500304,1.48838062286,1.8818426049333334
4.554143991,0.2357443392113335,-1.0840588331066667,1.40032736457,1.9189445808
4.562169962,0.1915729154980002,-1.1860141674733335,1.2816561380766667,1.9545302512
4.570195933,0.15463927187866683,-1.28528743582,1.1327194849566669,1.9837433251333332
4.578191387,0.13254470227866685,-1.3727385759200001,0.9631523132433333,1.9951631546666666
4.586217358,0.1349852005520002,-1.4467632055333335,0.7842456817500001,1.9900189301333333
4.594243328,0.1575833598653335,-1.5034021298066667,0.6013595580900001,1.9701091206666668
4.6022693,0.19515599805866687,-1.5412250042000002,0.4208718617500001,1.9425402344666667
4.610264754,0.24004265863866686,-1.5580446560666668,0.2511924107700001,1.9099268301999999
4.618290725,0.27998423178533355,-1.5625292300666667,0.09572963715000007,1.8691984744
4.626316696,0.3022842923720002,-1.5616757074666665,-0.0285022735366666,1.8247802254666667
4.634342667,0.3080884158586669,-1.5593832810666668,-0.11235434212333327,1.7804097599333335
4.642338121,0.2976367811360002,-1.5501612345533333,-0.15947227478333323,1.7429566509999999
4.650364092,0.28020084500466685,-1.52970348998,-0.17257366180999992,1.7202934717333334
4.658390063,0.26365832388466687,-1.4888873418533335,-0.15643138886333324,1.7019477960666665
4.666416034,0.24657947321800017,-1.4281751950600001,-0.10837160746333328,1.680707208
4.674442005,0.22956017454466685,-1.3493381261666668,-0.034731483439999954,1.6440974092
4.682437458,0.20617980261800017,-1.2675475199666668,0.05459175112000005,1.5960542979333332
4.690463429,0.17795777321066683,-1.1898073911666667,0.1465559641733334,1.5346686176
4.6984894,0.14314296047066682,-1.1286947171000001,0.2222981135266667,1.4723779765333336
4.706515371,0.10197007855066684,-1.0882634719,0.2682320912873334,1.4207576399333335
4.714541342,0.054935771229333505,-1.0696061213666668,0.28456573488066667,1.3896363022666667
4.722536796,0.0036852429360001706,-1.0690644979000001,0.2684586843073334,1.3822846288
4.730562767,-0.04352165162399982,-1.0799283107000002,0.22253284455400005,1.3985367964
4.738588738,-0.07635222177066649,-1.0971751610333333,0.14472096764066672,1.4431686324666666
4.746614709,-0.08593799173733316,-1.1148498296333333,0.0322780609273334,1.5180362841333335
4.754610163,-0.06563965181733315,-1.1254893064333336,-0.11470654801933326,1.612318255333333
4.762636134,-0.01784072419466649,-1.1292368809266666,-0.2896816570926666,1.7061785510000003
4.770662105,0.047992643705333515,-1.1269769271133332,-0.48527743014599994,1.789459275
4.778688076,0.1194620301253335,-1.1219064791866669,-0.6901910463393331,1.8557157764666667
4.786714047,0.19291304051200017,-1.1112365960933335,-0.8977416991393332,1.9085361265333334
4.794740018,0.2682479709320002,-1.0961661577066668,-1.098225879606,1.9517595514666666
4.802735471,0.3438867737786669,-1.0753990093733334,-1.2859568277393332,1.9910076370666667
4.810761442,0.4146760513320002,-1.0509356895933335,-1.4545641898726664,2.0340920086666667
4.818787413,0.4757835000653335,-1.0155741770666666,-1.5983894983793332,2.0787250362
4.826813384,0.5237647563120001,-0.9685701608400001,-1.7094440777799997,2.1151337176666667
4.834839355,0.5626043866000001,-0.9051057259000002,-1.7881011644466664,2.132745900666667
4.842834809,0.5910951236800002,-0.8316800594333335,-1.8331356366,2.128661796066667
4.85086078,0.6071423888133335,-0.7568484465266667,-1.8505118051333331,2.1074713384000003
4.858886751,0.6104161242600002,-0.6810670693733335,-1.8407486597333331,2.0657525364
4.866912722,0.5988122820800003,-0.6067583402333334,-1.8064247448666666,2.00451682
4.874908175,0.5746449093000002,-0.5313739935646667,-1.7504515012,1.9249503400666668
4.882934147,0.5444048623266668,-0.4580548763313334,-1.6804943084666666,1.8355027010666665
4.890960118,0.5142750601000002,-0.3899925390913334,-1.5970798810333333,1.7387201296466666
4.898986089,0.48746895194666684,-0.3250764846846667,-1.5090475082266666,1.6421579244733335
4.90701206,0.46485034625333355,-0.26155125301133336,-1.4137889544333333,1.5451457493066667
4.915007513,0.44446695248666684,-0.19336209298466672,-1.3124201456933333,1.4511880330533333
4.923033484,0.42608940999333356,-0.11697614988466672,-1.2000021934733334,1.3625600942333334
4.931059455,0.4082608481333335,-0.027767276771333387,-1.0667984008733336,1.28472586038
4.939085426,0.3886361281200002,0.06781827608199995,-0.9174148877133332,1.2202788328799998
4.947111397,0.3668376664466669,0.1626748879686666,-0.7564500808533333,1.16920269948
4.955106851,0.34143755636000017,0.24468770026199993,-0.5869415919000001,1.13110119108
4.963132822,0.3190897753000002,0.3163799603686666,-0.40622177123333325,1.1059418232799998
4.971158793,0.3075867365000002,0.3843845685219999,-0.2074889182999999,1.1010925730133334
4.979184764,0.30642692150666684,0.44431405066199997,0.004386488633333396,1.1156453304133334
4.987210735,0.3202842166200002,0.49334365525533325,0.2266216914333334,1.1533980589466666
4.995206189,0.3455045451866668,0.5268453756866667,0.44831288663333346,1.2162795704133336
5.003232159,0.37584489883333355,0.54602713584,0.6686363221,1.2995835409466667
5.011258131,0.40444852413333354,0.5511677106133333,0.8773396174666668,1.3923261885666667
5.019284102,0.43226686618000015,0.5427764892466665,1.0744179408599999,1.4896282148733335
5.027310073,0.4568423360733335,0.523568232846,1.2526954652,1.5859872805066666
5.035336044,0.47399427992000015,0.4933190663604466,1.4107692083933334,1.6782010272933332
5.043362015,0.4865499903933335,0.45587197938777996,1.5448153179066668,1.7617263843133333
5.051357468,0.4915141254800002,0.41580499012778,1.6514547349066668,1.8321021489666667
5.059383439,0.4919888009733335,0.3766444683011133,1.7410107931466667,1.8914741231333332
5.06740941,0.4885441154333335,0.34144450822777994,1.8162989299533334,1.9433699268
5.075435381,0.4807094117086668,0.31267037391444663,1.8830420177333336,1.9939032069333333
5.083461352,0.46368696590733355,0.28492088317444664,1.934902763466667,2.0342970330666668
5.091487323,0.4366118555293335,0.24787743886177996,1.9665222804666667,2.0545898095333333
5.099482777,0.40285695940533356,0.2012424310084466,1.9770512264000002,2.0549523004666663
5.107508748,0.3691833039166668,0.14907352130177995,1.9667449316,2.0351339726666664
5.115534719,0.3447124739566669,0.09147723516177994,1.938880411866667,2.0013293718
5.12356069,0.3342441817166668,0.03219958940844661,1.8946151098000001,1.9587672705999999
5.131586661,0.33482381701666686,-0.024652147291553392,1.8435544968,1.9171807432666665
5.139612632,0.34189983407666685,-0.0759939670515534,1.7887273152666667,1.8778522132
5.147608086,0.3519831716966669,-0.12528413136422006,1.7408192316666669,1.8475127001333334
5.155634057,0.3586520135300002,-0.17264418601866674,1.6983854294000003,1.8209684647333333
5.163660028,0.3519311626633336,-0.2222739775993334,1.6690966288666667,1.802171147
5.171685999,0.3434224188233335,-0.2667526483593334,1.6443496704666667,1.7828642188666666
5.17971197,0.3344381391900002,-0.3107526858660001,1.6181302389333334,1.7593947870000002
5.187737941,0.3211527716886669,-0.35514295101266674,1.588901964866667,1.7317015491333334
5.195763912,0.3072338642466669,-0.4053796529793334,1.5474960327333336,1.6941686751333334
5.203759365,0.2925719600680002,-0.46328350703266674,1.4933682760000002,1.6522170200666666
5.211785336,0.27061055767266684,-0.5267337401733334,1.4186443329133334,1.6072294442666668
5.219811307,0.24076012937000021,-0.5896367072800001,1.3306173960466667,1.5700252743333334
5.227837278,0.1928137671720002,-0.6476210673066667,1.2319504420333334,1.5394270216000001
5.23586325,0.12401886103200017,-0.6967205682666667,1.1240228017246667,1.5122575990000002
5.243858703,0.03766936975866686,-0.7334536631200002,1.006793149338,1.4817288184666668
5.251884674,-0.06276622098133315,-0.7636145193533335,0.8759278615846668,1.4567515172
5.259910645,-0.1660093017546665,-0.7815879503066667,0.7294679006513334,1.4353218247333333
5.267936616,-0.2673020072879998,-0.7907616614466667,0.5654207865846668,1.4213292478
5.275962587,-0.36083038529466643,-0.7896247624466668,0.39153569538466676,1.4175891795333333
5.283958041,-0.4415506450413332,-0.7762015341800002,0.2084849675180001,1.4161303259333335
5.291984012,-0.5212063380146665,-0.76285363824,0.023778343184666748,1.421016042266667
5.300009983,-0.6005366373279998,-0.74934926024,-0.16072877254866658,1.4324440198666666
5.308035954,-0.6714966893333332,-0.73158887218,-0.3444822947486666,1.4484005941999998
5.316061925,-0.7360455691733331,-0.7027478217153335,-0.518030039482,1.4687514297333333
5.324087896,-0.7918054123866666,-0.6579383610746667,-0.6709842682153333,1.490139415066667
5.332083349,-0.8373258113733332,-0.5986636001933334,-0.7945533752619999,1.5106592482666665
5.34010932,-0.8724674860333331,-0.5284266391774667,-0.8914538701553332,1.5198496788666667
5.348135291,-0.8943336565999999,-0.4590359051721334,-0.9648834864486666,1.5172666853333332
5.356161263,-0.9023781060933332,-0.39154013791213343,-1.01562722526,1.5023167033333336
5.364187234,-0.9063351074666666,-0.33576483724546674,-1.0486213048466666,1.4874228414666666
5.372213205,-0.9016741593533332,-0.27886107762546675,-1.0590183258266666,1.4604203465266667
5.380208658,-0.8930545210666665,-0.22293686071880003,-1.0478279113933333,1.4247245003933335
5.388234629,-0.8823638478733332,-0.17215484777946669,-1.0247843424733332,1.3838470218666667
5.3962606,-0.8707131107466666,-0.1336588700661334,-1.0005827585866665,1.3470548378666665
5.404286571,-0.8626613338599999,-0.10691692034613338,-0.9908553441199999,1.3291687852666667
5.412312542,-0.8530420581333331,-0.0941267967261334,-0.9970053990533333,1.3272681449333334
5.420338513,-0.8450946886999998,-0.08787719409280006,-1.0207475661866665,1.3420857775333332
5.428333967,-0.8404409090333331,-0.0873323440661334,-1.0605807939866667,1.372930185666667
5.436359938,-0.8376248518333331,-0.09443181357080006,-1.1224891344533332,1.4237631619333335
5.444385909,-0.8319950738999998,-0.10047140122746674,-1.2049485206533332,1.4907394481333331
5.45241188,-0.8238820830733331,-0.10366692544346673,-1.3011400222533331,1.5682896856000001
5.460437851,-0.8122069160066664,-0.10051983198866674,-1.4061571438933333,1.6522460797333334
5.468463822,-0.7973007321266665,-0.0932640075813334,-1.5195823987200001,1.7435614461333335
5.476459275,-0.7838838537399998,-0.08679347039466673,-1.6403973261333331,1.8444251705999999
5.484485247,-0.7698825001533331,-0.07289684614700007,-1.7596895217599997,1.9437856848666668
5.492511218,-0.7611880500933331,-0.05460200310700006,-1.8740771293599998,2.04205226874
5.500537189,-0.7601730704133332,-0.039607350040333396,-1.976566632593333,2.1348767858066666
5.508532642,-0.7677290955999999,-0.019573386519666724,-2.057958602913333,2.2127051689333332
5.516558613,-0.7774550795399998,0.006729682280333273,-2.1172202745999997,2.271343110133333
5.524584584,-0.7841599066866665,0.03157016435366661,-2.1489998181999996,2.3033903604
5.532610555,-0.7899105667866665,0.057096719733666604,-2.1578335762666665,2.3141870553333335
5.540636526,-0.7934673388599998,0.08252539634033328,-2.1434415818,2.3042128358666663
5.548662497,-0.7955736080599998,0.10682880083366661,-2.1047709783333333,2.2736062956
5.556657951,-0.7932696501266665,0.13561137517366662,-2.0386657079333332,2.2181905895333336
5.564683922,-0.7885644634399999,0.16427035331633327,-1.9496346156,2.1426020029333332
5.572709893,-0.7741107860999998,0.19393157959099996,-1.8444069862799999,2.0480821590666665
5.580735864,-0.750771176793333,0.2212941169736666,-1.7242369970066667,1.9369280635333335
5.588761835,-0.7211115499133331,0.25040531158099993,-1.5866434733399999,1.8092471887533332
5.596787806,-0.6904546797066665,0.2796105702676666,-1.4340467771266667,1.6694351123466664
5.604783259,-0.6575487553886664,0.30839061736666656,-1.2668502490213334,1.5286133387466667
5.612809231,-0.6237714429486664,0.33068040211333327,-1.0871707280679999,1.4024739692266668
5.620835202,-0.5804061591426665,0.3521551926866666,-0.8981633186479999,1.3053589527666667
5.628861173,-0.5294631103493332,0.3652141253066666,-0.7039223671079998,1.2363447996999999
5.636887144,-0.4776006201706665,0.3711131095799999,-0.4988112767746666,1.1965277961
5.644913115,-0.4198280354166665,0.3747314929866666,-0.28476270037466656,1.1797456303666667
5.652939085,-0.35694625972199984,0.3767702261533333,-0.05865605670799989,1.1849976427666666
5.660965056,-0.2902606228833332,0.37582530974666656,0.17885948822533343,1.2079822781
5.66896051,-0.2183761377946665,0.37046915689333326,0.42338657382533346,1.2483153659666668
5.676986481,-0.14885558485433317,0.3568700154533333,0.6740498860920001,1.3084888844333333
5.685012452,-0.08723786870233316,0.3337903340586666,0.9290514628253334,1.3911626115666669
5.693038422,-0.039376960196999815,0.30601464906399994,1.1887811025053334,1.5028014925666668
5.701064393,-0.0050447920973331565,0.2789159774699999,1.4432084401653333,1.6424218468333334
5.709090365,0.018043124676000177,0.25932571092999995,1.6851669311653334,1.8050316790133332
5.717116336,0.03717720508266685,0.2493161996166666,1.9148267746186667,1.9846397862866667
5.72511179,0.053464392818000174,0.2454101244566666,2.130055809046667,2.17417669442
5.733137761,0.07520184516466684,0.2451509634633333,2.3226186752266664,2.354724590473333
5.741163731,0.09159932533200017,0.24027129808999995,2.482742182406667,2.5068199023999997
5.749189702,0.11088652609866684,0.23136196136999992,2.608832550066667,2.629051851066667
5.757215673,0.13499671617333353,0.21315541267933327,2.6992391586666664,2.7184725078666667
5.765241644,0.1620542764593335,0.17789742152599994,2.761719830866667,2.7827520068
5.773267615,0.18105127413133354,0.12854701678599995,2.7960479736666666,2.821148689866667
5.781293586,0.19275936284600018,0.07339197795266661,2.812154388466667,2.8424167233333337
5.78928904,0.18968720435046685,0.014496803292666612,2.8104175568,2.8475220325999997
5.797315011,0.17245369949680017,-0.04423923491400006,2.7884963989333333,2.8352417532
5.805340982,0.14535017211146684,-0.11118114788600006,2.7450985590666668,2.8089668797333336
5.813366953,0.10485092201946683,-0.1912408669713334,2.6712075551333334,2.7645383249333335
5.821392924,0.05286466478646685,-0.2923206964973334,2.563185501066667,2.7059446311333337
5.829418895,-0.009483395026866496,-0.415359322244,2.4258761723333335,2.6405174282
5.837444866,-0.07520788710019982,-0.5555813551306666,2.253910509686667,2.5673881013333335
5.845470837,-0.1411724269468665,-0.7201536417173334,2.040868250466,2.4988198038666667
5.853466291,-0.20248251558019983,-0.8994077921306668,1.7975516001060001,2.441034532866667
5.861492262,-0.25714334647353315,-1.085081553484,1.5412294387526666,2.4050313124000002
5.869518233,-0.30236525138686654,-1.2574630658173334,1.2853543598860002,2.3799055084666665
5.877544204,-0.33227621317455314,-1.4041099946133333,1.0414719262860002,2.3568777761999997
5.885570175,-0.3514515876812198,-1.51122037574,0.8163074492393334,2.3228266352666664
5.893596146,-0.3555701573678865,-1.5809597969800002,0.6118163425926667,2.2751298918
5.901622116,-0.34905879497455317,-1.62256981536,0.42148227681266676,2.2049622319999997
5.909648087,-0.3375577469676865,-1.6424265703200003,0.2518078484993334,2.1154130852666664
5.917643541,-0.3272199312836864,-1.6506585916533334,0.10577049247133344,2.0190349542733332
5.925669512,-0.3198850115170198,-1.6417033990866667,-0.02585728969533324,1.9232506940933332
5.933695484,-0.3159597198236865,-1.6197316965133335,-0.13655274714199991,1.84106436776
5.941721455,-0.3128470261970198,-1.58582356778,-0.22641143802199995,1.7738090318266666
5.949747425,-0.31253168186368646,-1.5441643715133333,-0.3032190322973332,1.7190834186266668
5.957773396,-0.32136179607035315,-1.5042663812466666,-0.36659075420399995,1.6858851736933331
5.965799367,-0.3358540693836865,-1.4550994316466666,-0.41365725200333325,1.65752440256
5.973825338,-0.35689328510368656,-1.40106437198,-0.4557226817099999,1.6341998934266668
5.981820792,-0.38157536783701984,-1.3434940893800003,-0.5036569277566666,1.6178343964933333
5.989846762,-0.41069747009701985,-1.2914629697133335,-0.5681233088233333,1.62234079476
5.997872733,-0.4473116020226665,-1.24819422558,-0.6570809682233332,1.65440644776
6.005898704,-0.4869019766559999,-1.21659412378,-0.7725190480433333,1.7161489710933333
6.013924675,-0.5252359926626665,-1.1959326425133334,-0.9102035839966666,1.80435996056
6.021950646,-0.5579398194893331,-1.18680299118,-1.06665821075,1.91731694676
6.029946101,-0.5785713732159998,-1.18318939202,-1.2438839912366666,2.0513555388933336
6.037972071,-0.5828688979066665,-1.1788112480733335,-1.4402305284753332,2.194316747486667
6.045998042,-0.5743958572466666,-1.1693930784133333,-1.6393617311753332,2.331363097333333
6.054024013,-0.5547795057199998,-1.1493877092266667,-1.835338656062,2.4490331137999997
6.062049984,-0.5279905239666666,-1.1185420353533333,-2.0215872128486665,2.5505449286
6.070075955,-0.49454738297999984,-1.0809467792066667,-2.1923208872399997,2.6388097390666667
6.078101926,-0.4512468457066665,-1.0313033898400001,-2.3437152226866664,2.7093455014666663
6.08609738,-0.40357181231333317,-0.9745031515800001,-2.4737851778666666,2.7657013678
6.094123351,-0.3574232518733332,-0.91634527846,-2.5787874221333333,2.8111137306
6.102149322,-0.3145175317933332,-0.8569334666333334,-2.654471715266667,2.839489008133333
6.110175293,-0.27852875788666653,-0.7994793097533334,-2.7010273615333333,2.8510888066666666
6.118201264,-0.2469524661686665,-0.7432106971866668,-2.7224092483333333,2.8459176156
6.126227235,-0.22238783438599982,-0.6821851253733334,-2.717599423733333,2.8198465872000003
6.134222688,-0.20082484880799983,-0.6160867055600001,-2.6892436028,2.774149029333333
6.142248659,-0.18161976138133315,-0.5450574875013334,-2.6334639231333337,2.704630556066667
6.15027463,-0.1653875013146665,-0.4708003997946667,-2.5559223492666665,2.6172657286666667
6.158300602,-0.14614711602133315,-0.3905745824346667,-2.4504627227999998,2.5073964268666673
6.166296055,-0.12180903156133317,-0.308549213428,-2.314899063133333,2.377025339866667
6.174322026,-0.08902911344799984,-0.22740399044133344,-2.1465879758533335,2.2371344314066666
6.182347997,-0.04641997416133317,-0.14688278834800006,-1.9497220357466667,2.110625338073333
6.190373968,0.008967177078666833,-0.06263645490800006,-1.7176279385866666,2.0153625502066665
6.198399939,0.06868931849866683,0.023187239958666617,-1.4548761049866665,1.9474198112066667
6.206395394,0.12796339193866682,0.10777362187199996,-1.1606034596533332,1.90611643254
6.214421364,0.1810881992186668,0.19901107151866662,-0.8402887026533332,1.8825017558733335
6.222447335,0.22287670969866683,0.29746980667199996,-0.5017052332533332,1.8740939206066665
6.230473306,0.2478391925453335,0.40181291897866667,-0.14782781598666653,1.8780731128733332
6.238499277,0.25751473108533346,0.5146228154786666,0.2210724194800001,1.8994304962066666
6.246525248,0.26105338732000016,0.6266765912653333,0.5911864916800001,1.9445286880066666
6.254520701,0.2586679498313335,0.7368875345186666,0.9572901726133335,2.016941210206667
6.262546672,0.2561832904773335,0.8428028107266666,1.3128776868133334,2.12548941334
6.270572643,0.25115460157000014,0.9439100425266667,1.65953041708,2.2639495918066666
6.278598614,0.25388983487666683,1.03803496368,1.9834510802800003,2.4330402083400005
6.286624586,0.2684257467566668,1.1243299167066667,2.2737541198133333,2.631122445406667
6.29462004,0.2838114738433335,1.1984677792266667,2.5209433872666667,2.8447564736666666
6.30264601,0.2969987153966668,1.2648655573933334,2.72551517476,3.0426791981333334
6.310671981,0.2903114358500002,1.31772839234,2.8867816288000006,3.203050665133333
6.318697952,0.2651050408633335,1.3600648721733333,3.0202923455999997,3.3353452122000005
6.326723923,0.22348061402400013,1.3843469779333333,3.1259695688000004,3.437355350533333
6.334719378,0.16659559805733348,1.3865408103333332,3.206166966666667,3.5117404487333337
6.342745348,0.09677700598400014,1.3655917009333334,3.260293579,3.5609428074666667
6.350771319,0.01723144451066682,1.3297815800333335,3.2860324222666666,3.5875604538
6.35879729,-0.06930516959399986,1.2820145766266668,3.279342015466667,3.5865160388666673
6.366823261,-0.16089587213799986,1.2242228349333333,3.2417523700666666,3.5570691166
6.374818715,-0.2502123753539998,1.1560552279133334,3.1750096002,3.497125225
6.382844685,-0.32949102323999985,1.0716586271933333,3.0849598566,3.4048208462000003
6.390870656,-0.38925008775266645,0.9624005635366666,2.9726724624,3.2804708606
6.398896627,-0.4398648341659998,0.82002360025,2.838255182866667,3.1275738673333335
6.406892082,-0.4851633290593332,0.6471727689033333,2.6858297348000004,2.9607668816666664
6.414918053,-0.5210783799593331,0.4487428665033333,2.522272491466667,2.804633743733333
6.422944024,-0.5604234556473332,0.22267593543666658,2.345686531106667,2.672436938933333
6.430969994,-0.6004525880073331,-0.020879896496666713,2.1516623179733334,2.570032332533333
6.438995965,-0.6509230156806665,-0.2792760928966667,1.9210845311866669,2.4949453096
6.44699142,-0.7057409385879999,-0.5248406648966667,1.6540919621933334,2.440946220333333
6.455017391,-0.7696733931613332,-0.7638028542633334,1.3481506983933333,2.4274479318666664
6.463043362,-0.8104114512479998,-0.9454726140433335,1.0096067429266669,2.4121251614
6.471069332,-0.8348711550146665,-1.1253334602633334,0.6538024585266667,2.4339350864
6.479095303,-0.8814083556146666,-1.31784888119,0.29379307439333346,2.506087955933333
6.487090757,-0.9408298631479999,-1.5176059326300002,-0.04399401340666653,2.6070114146
6.495116728,-1.0215850333479999,-1.7162199100766666,-0.35636231100666654,2.7321801506666663
6.503142699,-1.1212941626813333,-1.8890616497566668,-0.6391491890066665,2.8583611136666667
6.51116867,-1.2216103057346666,-2.0018618505666668,-0.8832043965399998,2.9577553807999997
6.519164124,-1.3108804087346664,-2.0418018660399997,-1.0832826296066667,3.023242949933333
6.527190095,-1.3787660797946666,-2.0121004265,-1.23230009074,3.0374982708666662
6.535216066,-1.4258116424613332,-1.9296916486213334,-1.3303197542199998,2.9937593391333333
6.543211519,-1.45301328108,-1.812094378608,-1.38424317036,2.9067363825066663
6.55123749,-1.4589476109133332,-1.6746743600846667,-1.4043424923606667,2.78738143394
6.559263462,-1.4415236612733333,-1.5251917124846666,-1.3930848121053332,2.6450674765933333
6.567289433,-1.4031913698333334,-1.377621833598,-1.354686768793333,2.490688914573333
6.575315404,-1.33723630714,-1.226144051658,-1.2848506609333332,2.3117058023933335
6.583310857,-1.2692473173933332,-1.1183978160980002,-1.1909294446133332,2.1538493953133337
6.591336828,-1.1847694189106666,-0.9986474594046668,-1.0883532841933332,1.9802631100799999
6.599362799,-1.0565365513968,-0.8582803488180002,-0.9900993347266666,1.7875265399466669
6.607358254,-0.9050695618534664,-0.7017638127646666,-0.9175427118599999,1.60280100048
6.615384224,-0.7280402760001332,-0.5392397642646667,-0.8707342783266666,1.4311864186133332
6.623410195,-0.5486808141501331,-0.3859498103730667,-0.8629144349933333,1.2980646350133334
6.631436166,-0.3812546034901331,-0.2678431749330667,-0.8996568679266665,1.2307654484133332
6.63943162,-0.2378570735434665,-0.1900441805530667,-0.9741209029933332,1.2316418495466666
6.647457591,-0.13090422153679981,-0.15247151057306674,-1.0927603403933333,1.30635345188
6.655483562,-0.05488034884346649,-0.1373618761717334,-1.2566453298466664,1.4396270431466667
6.663479016,0.005461037156533514,-0.12108756701173341,-1.4470965704133332,1.60576522084
6.671504987,0.05612979730320018,-0.0917138258617334,-1.6463996252126665,1.7820244672733334
6.679530958,0.10730023582986686,-0.04561611811506673,-1.8405325572146665,1.95293896622
6.687526411,0.15452226202320019,0.01255590120493327,-2.0215689342,2.11119666524
6.695552382,0.19694277644986685,0.0819877942382666,-2.17567469286,2.24330029382
6.703578353,0.2267009337832002,0.1550092061382666,-2.29683831538,2.3482334407
6.711604325,0.23757975002986687,0.21648470561159996,-2.378884633466667,2.4225887376000004
6.719599778,0.23826131424173352,0.26174518267826663,-2.4186933835999995,2.4588042025999997
6.727625749,0.23603747289240015,0.28902071317159994,-2.4194102606000003,2.4581888113333332
6.73565172,0.23183104793840018,0.3028025786089333,-2.384506066733333,2.4227766286666665
6.743677691,0.2438006957417335,0.30736761093199993,-2.3137981416000004,2.3540856192
6.751673146,0.2582402805484002,0.30622240702533327,-2.2125285467799998,2.2570470957
6.759699116,0.26702771385506685,0.3074824651119999,-2.0856088321666664,2.136558549493333
6.767725087,0.2670460343417335,0.31695254644533327,-1.93089850754,1.9937067788133334
6.775720541,0.25046596130306686,0.334558105472,-1.75211807894,1.8364483574799997
6.783746512,0.20984194676973353,0.36256594657866664,-1.5387146314466664,1.69048590304
6.791772483,0.15927229722973352,0.40672311783866655,-1.2966804187066667,1.58122035864
6.799798454,0.1068864544297335,0.473189274492,-1.0279460589733334,1.5133035639066668
6.807793908,0.05736951430973352,0.560663874952,-0.7396638552399999,1.48780882584
6.815819879,0.017273366456400187,0.655134979912,-0.45398976010666653,1.4949571455066668
6.82384585,-0.0036004821409331487,0.7489645640520001,-0.17184534077333324,1.52517926044
6.831871821,-0.002000808710266483,0.8346376578186666,0.10152718222666675,1.56882687444
6.839867274,0.010032395524000183,0.9144614060986667,0.36296863556000003,1.6244037637066666
6.847893245,0.018570617836666848,0.9811003526186667,0.6091506958266668,1.68347367564
6.855919216,0.014265457791133519,1.0342375755413333,0.8380193074933333,1.7475747285733332
6.863945188,-0.011084528762199815,1.0685814380733334,1.0583210627600002,1.8235444181066667
6.871940641,-0.05515560706219982,1.0831337769933331,1.2704462052066667,1.9104004688066667
6.879966612,-0.10972488720886647,1.07766933442,1.47237097426,2.01213269868
6.887992583,-0.17415747244886648,1.0586321671866665,1.6669448853000002,2.1373610776266663
6.895988038,-0.23470563491019983,1.0368784109866667,1.8541071574333334,2.2810451656933335
6.904014008,-0.28821685713019984,1.0158321062866666,2.021896743806667,2.4244533753999997
6.912039979,-0.3511939724368665,0.9924177646666666,2.171532185933333,2.5552941140666667
6.92006595,-0.4402877489835332,0.9611366748666667,2.2989216487333333,2.670379953133333
6.928061404,-0.5560690125168665,0.9149344126666666,2.4010785421333334,2.7676633538666664
6.936087375,-0.6966489156501999,0.8619067351333333,2.4871882121333333,2.859835810133333
6.944113346,-0.8631959557995331,0.7997416178666666,2.5511138916666667,2.944718486133333
6.952139316,-1.047491602159533,0.7309091409599999,2.597990481133334,3.0260015228666663
6.960134771,-1.2252523303862,0.6455834389199999,2.6359312058000004,3.0978755895333334
6.968160742,-1.371426896359533,0.5448761145866666,2.6714399974000003,3.1624051658666668
6.976186713,-1.4744437417466665,0.42892306651999995,2.7092784246666666,3.225197813133333
6.984182166,-1.527384849493333,0.2914948781733333,2.7439547857333335,3.2887264507333334
6.992208137,-1.5315782826199997,0.13406972892,2.769708061266667,3.359749450333333
7.000234108,-1.4916117510266664,-0.03985761001333337,2.7774652482000004,3.432889867266667
7.008260079,-1.40849096786,-0.22903240515333334,2.7531213761333335,3.495522499466667
7.016286051,-1.3032420795266664,-0.4332294463266667,2.6965510687333336,3.542734314
7.024281504,-1.1864783129066663,-0.6584914206400001,2.6004530590000003,3.565428680866667
7.032307475,-1.065202864113333,-0.9119721411533334,2.4515705109533332,3.5585871257333337
7.040333446,-0.9400996209199998,-1.1938327788199998,2.2495377859086667,3.5296874483333336
7.048359417,-0.8200668176799998,-1.4848256904866666,2.003624598228667,3.4881182091333334
7.056354871,-0.70199708946,-1.7659605343533333,1.7194082896286669,3.4379893412
7.064380842,-0.5824786147199998,-2.02141941382,1.4049702962286665,3.3969956801333336
7.072406813,-0.4672187050799998,-2.238588364846667,1.0619774182953334,3.376942758066667
7.080432784,-0.36892544827999985,-2.4026059944733333,0.6855439822286669,3.3866477392666665
7.088428238,-0.2937852859466665,-2.51127939214,0.28707615536200015,3.4244541365999996
7.096454208,-0.24689495960666646,-2.5668902793333332,-0.11835406623799984,3.4696882754000002
7.104480179,-0.2231489221266665,-2.562850197,-0.5191046079046665,3.496354191
7.11250615,-0.21818406184666647,-2.5146658658,-0.9074495633713331,3.502791010666667
7.120532121,-0.23501184384666646,-2.4401240427333333,-1.2670632363046663,3.4896624644666665
7.128527576,-0.2704059402199998,-2.353613686466667,-1.5835440001046666,3.4587969314666664
7.136553546,-0.31017594735333315,-2.2621550877333334,-1.8424903553046665,3.4043682111333333
7.144579517,-0.3427835424799998,-2.1634946107333333,-2.038403829038,3.3303524629999997
7.152605488,-0.35568742355333316,-2.047538240733333,-2.1579299291913334,3.2330893748666667
7.160600942,-0.33975719213999983,-1.9156083027333333,-2.2033210119533333,3.1155817002000004
7.168626914,-0.2938099503533331,-1.7826709588666667,-2.1712669373453335,2.9835451817333336
7.176652885,-0.2274927496933331,-1.6660390377333334,-2.070352872285333,2.8555804034
7.184678855,-0.1561916271866665,-1.5696513096666669,-1.9105463664253333,2.7294326866
7.192674309,-0.08148049513999982,-1.4955592791333332,-1.7074601809853334,2.5984587907333334
7.20070028,-0.00639115573333315,-1.4479625702000003,-1.471492544892,2.455472031066667
7.208726251,0.06429007846666686,-1.4155359904666664,-1.2260401726519998,2.2960660166
7.216752222,0.1313395221933335,-1.3947303852,-1.0003164609806665,2.1303957142
7.224747676,0.18140450715333353,-1.3838216782000001,-0.8121792157939999,1.9789282067333331
7.232773647,0.21334543228000016,-1.3630878527999999,-0.6628610293406665,1.8413816132666667
7.240799618,0.23168352048000018,-1.3281813065066668,-0.5598908424739998,1.7340393117333333
7.248825589,0.23861396710666685,-1.2768141984866668,-0.5020976384739998,1.660318447133333
7.256821042,0.23707226515333352,-1.2085562387866668,-0.5042608261406666,1.6344873732666665
7.264847013,0.2258997996706668,-1.1357811530400002,-0.5577067376073332,1.6514873193333333
7.272872984,0.20042465131000017,-1.0656457662266667,-0.6609084448073332,1.7107778667333333
7.280868438,0.16149818103000016,-0.99663889404,-0.8018360456673332,1.7978082481333333
7.288894409,0.11151456435666685,-0.9240631261733334,-0.9851190567953333,1.9023737732000001
7.29692038,0.05505378247000017,-0.8400226433206668,-1.2017703693219999,2.0059226610666667
7.304946351,-0.008127133043333153,-0.7450436512093334,-1.4371027947819999,2.1022501022666664
7.312941805,-0.0837530016766665,-0.6284811496360001,-1.6747166316886668,2.193618592066666
7.320967777,-0.16703888574999984,-0.478305991456,-1.8982624373153334,2.2829093776
7.328993747,-0.2569962104166665,-0.306774457256,-2.086665948355333,2.372423036133333
7.337019718,-0.35326155028333317,-0.13570407232266668,-2.23186241796,2.4640675082000003
7.345045689,-0.45232392947666644,0.027240633943999983,-2.331242656813333,2.5489612245999997
7.353041143,-0.5430452227899998,0.17538901961066664,-2.372582912533333,2.6091199326666668
7.361067114,-0.6042035500566666,0.31997563038399995,-2.3390314420666667,2.6193092397333335
7.369093084,-0.6422370950766665,0.4590307076306666,-2.2370509465933335,2.5918187497333336
7.377119055,-0.6588413556766665,0.5892224947306667,-2.0711672465333333,2.5443819818666666
7.38511451,-0.6509787838006665,0.7209009965173333,-1.8531853357999999,2.5026955424
7.393140481,-0.6371756712933331,0.8213480313706666,-1.5804040591333333,2.4560510227999997
7.401166452,-0.6090057969399999,0.9183766683173334,-1.2621462504666665,2.4325058873333334
7.409192423,-0.5577691475866665,1.0024005254506667,-0.9187286059333332,2.414728333066667
7.417187876,-0.4896873514199998,1.0631373723713333,-0.5639063517333331,2.3937852464666665
7.425213847,-0.4053532640466665,1.1072275877333333,-0.1929772058666665,2.3822006655333334
7.433239818,-0.28609090649333313,1.1378929933266668,0.19118140540000012,2.3877923669333336
7.441265789,-0.13818094735999983,1.1419407129666665,0.5958026886000002,2.425100797066667
7.449261243,0.020125802306666843,1.12279049562,1.0241930008,2.5118524885333335
7.457287214,0.17910671230666686,1.0940554977266668,1.4634951273333334,2.6319183278000002
7.465313185,0.3355523903733335,1.0499909083666668,1.8906431198000002,2.763127002
7.473339156,0.4776137590200002,0.98711663492,2.2787790934,2.9013264555999996
7.48133461,0.5840082565733336,0.8962925315859999,2.608958180733333,3.0555995412666666
7.489360581,0.658189483466667,0.7761219700993334,2.8832173029266666,3.2171219042
7.497386552,0.7014313459200001,0.6311700940793333,3.1111556370666666,3.3711639284666663
7.505412523,0.7066553354066669,0.46488355799933334,3.2949569702,3.4974997253333333
7.513407976,0.6983353853020001,0.32135030431266665,3.428797849,3.6090961270000004
7.521433947,0.6586425939953335,0.17381791275266664,3.5198952992666666,3.6846698724666664
7.529459918,0.5887151479486669,0.032609530285999985,3.5896950403333334,3.7476696977333335
7.537455373,0.4943535129020002,-0.08589520057400003,3.6364430109333337,3.7952782145333335
7.545481344,0.39253252344866685,-0.19102717638066669,3.6320930480666664,3.800625386333333
7.553507315,0.2635307629753335,-0.30057322978733336,3.5720684051333333,3.7572246794666664
7.561533285,0.10541469257533351,-0.41259376604733333,3.4516183853333335,3.6648098020666664
7.569528739,-0.06676627795799982,-0.523406374454,3.2771704992,3.5282615420666668
7.57755471,-0.23723400435799982,-0.631800111134,3.0745302200666673,3.367889054933334
7.585580681,-0.40173854829133315,-0.7459780494406668,2.8591908137333335,3.2087511502
7.593606652,-0.5476580063379999,-0.8727529287273333,2.6346467336333332,3.0663065394666664
7.601602106,-0.6722578922579998,-1.0091438452600001,2.403498331726667,2.9499193779333335
7.609628077,-0.7750867207579997,-1.1408940951066666,2.1674137115933334,2.856835154866667
7.617654048,-0.8538009484313331,-1.2668467442200002,1.9319616954066667,2.779600658866667
7.625649502,-0.9013482649846665,-1.3933614134733332,1.7033112208333336,2.7196613698666665
7.633675473,-0.9213210502999998,-1.5329183538533333,1.4800547918266667,2.6812743188
7.641701444,-0.9151485919666664,-1.68848330576,1.2547687531160001,2.6648834453333334
7.649727415,-0.9003507931733331,-1.8588890711600001,1.0225070318426668,2.6665948334666667
7.657753386,-0.8839127818466664,-2.0473846912733333,0.7968636195493334,2.6955250821333334
7.665748839,-0.8739393154466664,-2.2406159162733332,0.5936146418560001,2.7614314282
7.67377481,-0.8664328177599998,-2.4253882766333335,0.4123551686893335,2.8566071010666665
7.681800781,-0.8588773568266664,-2.5917227586599996,0.2437341054493335,2.9601467013333336
7.689826752,-0.8580236036933331,-2.73425517084,0.07123044331600009,3.052890456733333
7.697822207,-0.8770028828933331,-2.8584782918666667,-0.11407515208399989,3.144516535733333
7.705848177,-0.9171380439599998,-2.954224538866667,-0.3022358258839999,3.242318731066667
7.713874148,-0.9888404766266665,-3.0104991754666672,-0.48106336598399996,3.3489094087333333
7.721900119,-1.0835442304266667,-3.0304967722000002,-0.6512940725439998,3.4536429934666666
7.72992609,-1.1948137839399997,-3.018202829466667,-0.8190061888106666,3.5516123360666665
7.737921544,-1.3226991414599998,-2.975761405733333,-0.9758936882906665,3.6322275540666666
7.745947514,-1.474194796813333,-2.901211492333333,-1.1134378116506667,3.690075221
7.753973486,-1.6372389156599998,-2.7941343547333335,-1.2325940769106665,3.7186061852
7.761999457,-1.8002858558333332,-2.6533703010666665,-1.3260523797333332,3.7142020201999997
7.770025428,-1.9429048616866667,-2.4798701327133332,-1.3940890313266663,3.6713514138666663
7.778020882,-2.0571728467266666,-2.2869616708,-1.4405790647933332,3.595137092266667
7.786046852,-2.1402628182466668,-2.0844026685733335,-1.4574325244666666,3.488252317133333
7.794072823,-2.194051106666666,-1.8798175375333335,-1.4395655633,3.3587370308000004
7.802098794,-2.220746397866667,-1.68485537378,-1.3924721718866666,3.2196738302
7.810124765,-2.2126477082,-1.50835012208,-1.3206021945733333,3.0724721888
7.81812022,-2.1647839465999996,-1.3424338957533335,-1.2250232379553332,2.9057698618666667
7.826146191,-2.0797940730533333,-1.1798850993866665,-1.1174275081168001,2.711492442366667
7.834172161,-1.9552686054933333,-1.02478516306,-1.003102684082133,2.487529557173333
7.842198132,-1.8043940623133332,-0.8731552740293332,-0.8850275357887999,2.244839643853333
7.850224103,-1.6403654733686666,-0.730405205504,-0.7627686818554665,2.003436354126667
7.858250074,-1.466985607107333,-0.5970109959633334,-0.6554821014621333,1.7813216532533334
7.866276045,-1.282320634507333,-0.47515179119,-0.5709792454954666,1.5783201760400003
7.874302016,-1.1019691070079998,-0.3642714003766666,-0.5044306437021332,1.3946644323666668
7.88229747,-0.9299783150473331,-0.26209660967666665,-0.4574453353687999,1.2313803353000001
7.890323441,-0.7777633428539997,-0.1689142346433333,-0.4352074941021332,1.1003980672866664
7.898349412,-0.6538073221673331,-0.07610589266333334,-0.4381702423421332,1.00755543102
7.906375383,-0.5606428384873331,0.018970811363333333,-0.47641423544213324,0.9619170973533334
7.914401354,-0.49930199386733315,0.11711899836333334,-0.5485264460421333,0.9626721187533335
7.922427325,-0.45765312514733314,0.21827844781,-0.6383800824821332,0.9940872227533333
7.930422778,-0.4396517197473332,0.3203728079766667,-0.7389388084621332,1.05357899422
7.938448749,-0.44159632528066645,0.41916600665000003,-0.8486073494134666,1.1353669618200002
7.94647472,-0.4628038406939998,0.5131199896166667,-0.9554258664519999,1.2358104747866667
7.954500691,-0.5013977527873332,0.6024432678900001,-1.0504890759533332,1.3487594465800001
7.962526662,-0.5468134482939998,0.6889845589926668,-1.1210740089133333,1.4597309320333334
7.970522116,-0.5910098711919998,0.7699141442673334,-1.161161327333333,1.54742134176
7.978548087,-0.6328022877666666,0.8418029009933333,-1.1663189251933332,1.6059555962333332
7.986574058,-0.6685107946666665,0.90525860582,-1.1431095440866665,1.6452140414466667
7.994600029,-0.6885634978859998,0.9599876542066668,-1.0893099784533333,1.6732362999866666
8.002595484,-0.6950517257266665,0.9982715307866666,-1.0088884035399999,1.6938468801199997
8.010621454,-0.6835427443406664,1.0208374658400001,-0.9038577715199999,1.7024532244666668
8.018647425,-0.6514274835806665,1.0303679624400002,-0.7805223146399999,1.6925356466666666
8.026673396,-0.6028544505626665,1.0319952487133335,-0.6415001232999998,1.6583971658
8.034699367,-0.5349803169759998,1.0311815380266667,-0.4943710008799999,1.6007059286666667
8.042694821,-0.4606543859026665,1.0353036918933334,-0.3475264230733332,1.539456191
8.050720791,-0.3829804261493332,1.04685035936,-0.20858065282666655,1.4823644592666667
8.058746762,-0.30434399444266647,1.0710051496266668,-0.07494010921333323,1.4378364235999999
8.066772733,-0.23267808752333313,1.1080036202933334,0.05247421267333343,1.4067670621333335
8.074798704,-0.16910179456133315,1.1532548546933332,0.16905453999333347,1.3875635102
8.082794159,-0.12012975216133315,1.2002115368933335,0.2668397267533334,1.3853496390666669
8.09082013,-0.08275292714133316,1.2472882708266666,0.3403928756600001,1.3987494882666667
8.0988461,-0.055262343081333154,1.29317853856,0.3944865544533334,1.4264168178666667
8.106872071,-0.037700446441333156,1.3351131082266667,0.4468020121133334,1.4657667566
8.114867525,-0.034575057027999824,1.3747856578266666,0.49632657367333344,1.5182711489333334
8.122893496,-0.04291100502133315,1.4194444896133334,0.5415406544933334,1.5810328425999998
8.130919468,-0.06772401332733316,1.4658759873733334,0.5911313374733335,1.6517782635333333
8.138945438,-0.10936231612733316,1.5161352358133333,0.65681196846,1.7392999469333332
8.146940892,-0.1655161937053332,1.5705974700200003,0.7477492649866668,1.8512225303333334
8.154966863,-0.23490638732533314,1.6236170214666668,0.8645314534333334,1.9825180508
8.162992834,-0.31226573785199985,1.6669402124666668,1.0010539372933336,2.1196405186000002
8.171018805,-0.3955832084053332,1.6992105406666667,1.1488253911800002,2.2529011387333338
8.179044776,-0.4878804207119999,1.7231781961333332,1.3012808482333336,2.3795718764666662
8.187070746,-0.5819549878979998,1.7377868415333333,1.45582879388,2.4984461083333334
8.195066201,-0.6811491331266665,1.7507542134666667,1.61130485536,2.6161984322
8.203092172,-0.7911752224666665,1.7613624097333334,1.7668280919333335,2.7357079983333334
8.211118143,-0.9157892465999997,1.7720097384000002,1.92658411658,2.865120269266667
8.219144114,-1.0553634326133332,1.7758827130666668,2.0861140568533334,3.0040447152666667
8.227170084,-1.2032761653533333,1.7746263902666668,2.2240197499199996,3.1445417514000003
8.235196055,-1.3473711013799996,1.7560554744,2.340609804733333,3.2727050064000003
8.243191509,-1.476712361973333,1.7055278699466667,2.4389618555333334,3.3773064948000004
8.25121748,-1.57713359198,1.61487180398,2.5116928736,3.4496820468666667
8.259243452,-1.646302096093333,1.4792313814466667,2.552233886666667,3.4878476824
8.267269423,-1.6709298690799999,1.2969199180466666,2.546975962266667,3.4809687844
8.275295393,-1.6497635603599998,1.0870884577133333,2.4977463403333333,3.4330449962666667
8.283321364,-1.5844700893399997,0.8570958455133333,2.4068841297333337,3.356380006266667
8.291316818,-1.4851504723799998,0.6127040862466667,2.2842765806733336,3.2685107876000004
8.299342789,-1.3658136288666667,0.3531351645133333,2.13970877316,3.1733548320000002
8.30736876,-1.237336611753333,0.08638896938,1.981905555606667,3.0734863448666667
8.31539473,-1.1072283585666665,-0.18436237975333333,1.8071686425840001,2.9664326612000003
8.323420701,-0.9777256886066664,-0.4526712259533333,1.6204794565106666,2.8495116984666664
8.331446672,-0.8499780098799997,-0.7137404919533333,1.4239936828173336,2.721769639266667
8.339472643,-0.7227279265866664,-0.9593848705533332,1.2106412251506669,2.5896209810000004
8.347468098,-0.6047833204599998,-1.1909474770866666,0.9754383722506669,2.4670758752
8.355494069,-0.49902165339333315,-1.3987241427533332,0.7153158823173336,2.3638997118000002
8.363520039,-0.4125027259799998,-1.5656867901666667,0.42926543545066675,2.290941838266667
8.37154601,-0.34528172816666647,-1.6808446010000002,0.13441979085066677,2.248688191066667
8.379571981,-0.2908716758333332,-1.7480604409999998,-0.15037701928266653,2.2207755756666665
8.387567436,-0.25543756087999986,-1.7715944608,-0.4098585764826666,2.2072774262666663
8.395593407,-0.24456786712666648,-1.7707734823333332,-0.6353519439493331,2.204690924933333
8.403619377,-0.2614418943799998,-1.7521486838666667,-0.8154259046159998,2.2003726364
8.411645348,-0.29673129321333314,-1.7191434542000001,-0.9404481570226665,2.1781831127999998
8.419671319,-0.3374844908799998,-1.6747438589333332,-1.0112416267693332,2.1333098048666668
8.427666773,-0.3778844634793332,-1.6273513634666665,-1.0345757484759999,2.0804769158
8.435692744,-0.4079366962206665,-1.5854524929999998,-1.0108518282866665,2.038385908
8.443718715,-0.4272353450539998,-1.5551595448666666,-0.9556405703533333,2.0133249188
8.451744685,-0.4347325126406665,-1.536740644666667,-0.8791948636666665,2.0030584648
8.45974014,-0.43336674373399986,-1.5203258036666667,-0.7862818082466666,1.9918518723333334
8.467766111,-0.4221215526406665,-1.5062426089333334,-0.6731116930933332,1.9707848932
8.475792082,-0.4039586186539998,-1.4920534848666667,-0.5522849718799999,1.9317941056666668
8.483818053,-0.37990768751399984,-1.4772534926666667,-0.42018152872666653,1.8713897212666666
8.491844023,-0.35695882241399984,-1.4577227115999998,-0.28217525484666656,1.7946201548666667
8.499839477,-0.34650061926066644,-1.4239610831333336,-0.15801598232066652,1.7078701739333333
8.507865449,-0.3508822242473332,-1.3778371334200001,-0.04634459812733319,1.6169822458666665
8.51589142,-0.3613245844873331,-1.3237602949066667,0.04866482414600014,1.5256885583066666
8.523917391,-0.3729187925673331,-1.26563584802,0.11959336598600015,1.44253436862
8.531943362,-0.3854484001806665,-1.20865945816,0.16018187205933346,1.3774255370333333
8.539938815,-0.40502148469399984,-1.15755678812,0.16727485657266677,1.3359923157466667
8.547964786,-0.43185729186133315,-1.1079881985866669,0.13899599711933344,1.3085753899333334
8.555990757,-0.4635218620333331,-1.0560888449466668,0.07602272033933347,1.2823581084666669
8.564016728,-0.48715756535333316,-0.9932159503733333,-0.015117708840666544,1.2492175358666666
8.572042699,-0.49740750987999977,-0.9143968185266667,-0.1289659500073332,1.2070529199333333
8.580068669,-0.49521404703333316,-0.8259112756066667,-0.25245100656066655,1.1651875487333332
8.588064124,-0.4802623649399998,-0.7272367477953333,-0.37702935534733323,1.1232760723333333
8.596090095,-0.45365026592666646,-0.6239598274553333,-0.4941790898273332,1.0906946390666665
8.604116066,-0.4195005198279998,-0.523576466254,-0.6068639755139998,1.0727620964666669
8.612142037,-0.3803231418103331,-0.4327565669846667,-0.7148331641939999,1.0678884128666666
8.620168008,-0.3301841715936665,-0.35844647089666665,-0.8095090229866666,1.0775199666666668
8.628163461,-0.27668827176033317,-0.29945850372133337,-0.8939312298466665,1.0984892535333333
8.636189433,-0.22404166261366645,-0.25215943654,-0.9684246380533332,1.13011882776
8.644215404,-0.17484852671366646,-0.21163932481866665,-1.0347846666266665,1.1699050460466667
8.652241375,-0.13332365552033315,-0.17165664036733333,-1.0956453322999997,1.2121205063
8.660236828,-0.09365910490033316,-0.12669022878066669,-1.1495123544866666,1.2455402590533333
8.668262799,-0.051033471020333156,-0.07482488950066667,-1.1967987060399998,1.2695553053333333
8.67628877,-0.0042531708803331516,-0.017023674647333332,-1.2339078266933332,1.2837910047333334
8.684314741,0.042324618499666844,0.042560307186,-1.25305029544,1.2888316234
8.692340712,0.08445253769300018,0.097401189806,-1.2516283034599998,1.2845589436666667
8.700336166,0.12678372859966683,0.14489008585266666,-1.2351698556933333,1.2754066388
8.708362137,0.17120622396633353,0.18581562042133332,-1.2100020090199997,1.2662678318666667
8.716388108,0.21068930625966686,0.22460641860799999,-1.1716185887266664,1.2514797301266667
8.724414079,0.24233194589433354,0.26530264218666666,-1.1119951247466666,1.2227720640933335
8.73244005,0.2611699263233335,0.31280028025066664,-1.033294327993333,1.18655901318
8.740435503,0.26946314970666685,0.364839951196,-0.9436924616119999,1.1496066610266666
8.748461474,0.2764331340800002,0.41369558970066667,-0.8475152015513332,1.10922386572
8.756487446,0.28212631146000017,0.459377606706,-0.7495798428653332,1.06726508562
8.764513417,0.2898101607933335,0.499432865778,-0.6560079892399998,1.0234195023733335
8.772539388,0.30473815600000015,0.53220442136,-0.5662699381113332,0.9815813552933333
8.780565359,0.33858797152666686,0.55584128698,-0.4817929585443332,0.9538618033066666
8.788560812,0.38430401881333354,0.5656768639866667,-0.3981128056229999,0.9325680208533332
8.796586783,0.4329768935800002,0.5689876556400001,-0.3061737696029999,0.9155769636666666
8.804612754,0.4799663702666669,0.5708847681666666,-0.20588626860966658,0.9082559550666667
8.812638725,0.5246147672333336,0.5747496763866666,-0.10281867980299987,0.9152841720666667
8.820664696,0.5653841733933335,0.5818192164133332,0.0013190587436667789,0.9358165024
8.82866015,0.6019037644066668,0.5915887673666667,0.10641867320366677,0.9650227425333333
8.836686121,0.6390892267133335,0.6054579575800001,0.20534966787033343,1.00315271594
8.844712092,0.6847652752933335,0.6255528132066667,0.28945871989033345,1.05552387664
8.852738063,0.7446174462666668,0.6493793805399999,0.35792064666366674,1.1211731712866666
8.860764034,0.8087562958466669,0.67388413744,0.4170612970956668,1.18919040984
8.868759487,0.8657703479400001,0.70294254618,0.4737910588550001,1.2598173249466667
8.876785458,0.9113923708866668,0.7314252694133333,0.5308280309023334,1.3265735195133332
8.88481143,0.9402634382466668,0.7587769349333334,0.5956181208303335,1.3874866996933333
8.892837401,0.9486324628400001,0.7857806841466667,0.6684080759683335,1.4419552073066666
8.900832854,0.9248143991066669,0.80986533164,0.7523195266680002,1.48742195576
8.908858825,0.8753302971733334,0.8312837441666666,0.8522813161466668,1.538414000413333
8.916884796,0.8010065953133335,0.83818653424,0.9583360671933334,1.5962782378
8.924910767,0.7097090840533334,0.8209689458200001,1.0585027694666669,1.6559852985333334
8.932936738,0.6165610432866669,0.7768768310533335,1.1409392674533334,1.7038746857999998
8.940962709,0.5309569041200002,0.7089372317000001,1.2028848648066668,1.7328485233333335
8.948958163,0.4639846802013335,0.6263241767933334,1.2500445048066668,1.7450461477333334
8.956984134,0.4109540939680002,0.5311048348799999,1.2860467275133336,1.7434330336666666
8.965010105,0.3682818731213335,0.42375664711333333,1.3074239095133333,1.7237692297333331
8.973036076,0.3189890861746668,0.3072705109933333,1.30974667868,1.6787759212666666
8.981062047,0.2611606121213335,0.1870675882,1.295291773486667,1.6157892657733333
8.989088018,0.1933442592573335,0.06953509651333332,1.2687509536800001,1.5428149912266667
8.997083471,0.11636983950400018,-0.04050324754666666,1.2359772364333332,1.47124792588
9.005109442,0.03318099975066684,-0.14079453150000001,1.1952452977533337,1.4076397926933335
9.013135414,-0.05023612976933316,-0.23875009218666668,1.1455389658666668,1.3585880039866667
9.021161385,-0.12686380546266648,-0.3328430970466666,1.0799736023066666,1.3203126345266665
9.029187356,-0.19586219390933313,-0.41695229212000007,0.9929337183466668,1.2816360003266667
9.037213327,-0.24864888589599984,-0.48518602053333326,0.88527355196,1.2374947269933332
9.04520878,-0.2891594727759999,-0.53309585254,0.7643749237226667,1.1885531947933332
9.053234751,-0.3360276699159998,-0.5637971878133333,0.6386639913300002,1.15290982646
9.061260722,-0.3980991085293332,-0.58177342416,0.5029934565366667,1.1370250523266667
9.069286693,-0.4867134611039999,-0.5982588450266666,0.3446489969966668,1.1474322881933332
9.077312664,-0.5964814067373332,-0.6104019959866667,0.16207472486333346,1.1858709351933332
9.085308118,-0.7217934568906664,-0.6103770256133333,-0.03020251586999989,1.2491205382600001
9.093334089,-0.8463163574773331,-0.5936319987066666,-0.22106777822999987,1.3384324427933334
9.10136006,-0.9603964924906665,-0.56351219814,-0.40406570431666655,1.4468841260866667
9.109386031,-1.0643543442266665,-0.5259581724907333,-0.5743674595966666,1.5644382011
9.117412002,-1.1600997766333332,-0.49043555260739996,-0.7395895640166665,1.6896999658466667
9.125407455,-1.2440331976266665,-0.4629360834840667,-0.9012693087566664,1.8172309292333333
9.133433427,-1.308434220213333,-0.43888128599073334,-1.05568885807,1.9299985448066665
9.141459398,-1.3530906637999998,-0.41727115313740004,-1.1991587003766668,2.0229152349333335
9.149485369,-1.3739928007333333,-0.3947492281640666,-1.331356525483333,2.0926211518
9.15751134,-1.378401454333333,-0.37200417519073337,-1.4494207700966664,2.1435722307333336
9.165506793,-1.3750201861999998,-0.34973011017073335,-1.5582847913926665,2.1861795375999997
9.173532764,-1.3615674615666664,-0.31792367299740004,-1.6473840396666664,2.210410103866667
9.181558735,-1.343123591033333,-0.27491906484206663,-1.7072665851400002,2.2179262416
9.189584706,-1.321734066833333,-0.21476279894206665,-1.7349694253333332,2.2078401075333334
9.197610677,-1.2939069151666662,-0.1471270243354,-1.7386508625333332,2.1830648838666664
9.205606132,-1.2645397345333331,-0.08845359484873333,-1.7372908593999996,2.1603610940666664
9.213632102,-1.2351577679333332,-0.0449239412954,-1.7415334703333334,2.1482922208
9.221658073,-1.2090033134,-0.01249485016206667,-1.7594750724,2.1528710342666666
9.229684044,-1.1784090995999996,0.00940761565533333,-1.7950320245333333,2.1709266177333335
9.237710015,-1.133017961173333,0.025044345851999997,-1.8459145865333333,2.1954849860666665
9.245705469,-1.0774149258599999,0.041079171495333335,-1.9060234071333333,2.224354571133333
9.253731439,-1.0178640047399998,0.061883306495333336,-1.9743630410666666,2.2612582036
9.261757411,-0.9544287840266664,0.08749936420866668,-2.0523265204,2.3086075033999998
9.269783382,-0.8885786394333332,0.113264656062,-2.1424494744666664,2.3724553835333335
9.277809353,-0.8200247943166664,0.145241737362,-2.2405650139999995,2.448331426333333
9.285835324,-0.7438023944166665,0.18376990953533331,-2.329307556266666,2.5168755788
9.293830778,-0.6676862616833331,0.22194992700866667,-2.411765702666666,2.5800141552
9.301856748,-0.5967204153119997,0.25476085344666666,-2.4873902321999997,2.6346406802
9.309882719,-0.5446804304786664,0.27823789913999997,-2.5545349758,2.6800828347333336
9.31790869,-0.5206763525919998,0.2983155250533333,-2.6064897220666667,2.7195290972
9.325934661,-0.5192831575986665,0.33179512024,-2.6283974966666666,2.7453443586
9.333960632,-0.5472924291986665,0.3850121498333333,-2.6071317038,2.757521307866667
9.341956086,-0.593616054465333,0.45729099912666665,-2.536267980066667,2.7546456882
9.349982057,-0.6534063160653332,0.5505409876799999,-2.4240242959466665,2.7496878436000003
9.358008028,-0.7256988744253331,0.65861711506,-2.27086531332,2.738374106933333
9.366033999,-0.8071141064719998,0.7765174389133335,-2.08518209466,2.7231703674000003
9.37405997,-0.8898920755253332,0.9011513551333333,-1.8655454954399997,2.705363108266667
9.382055423,-0.9682032248386664,1.0333608468866666,-1.62243617384,2.684318686266667
9.390081395,-1.0370300651653332,1.1680764039866667,-1.3654910406199998,2.6527052947333334
9.398107366,-1.0968637546953333,1.2937243779733334,-1.1052755356533333,2.610472226
9.406133337,-1.1508102139886665,1.4057716210733335,-0.8678726514933331,2.5649632082666667
9.414159308,-1.1936303696086663,1.5034857909133335,-0.6599488576933332,2.5191386926666666
9.422185279,-1.21472417524,1.59154314996,-0.48071848556666646,2.4759677841333336
9.43021125,-1.2012543401166664,1.67598590854,-0.31810801826666657,2.437694470333333
9.438206703,-1.1531849425093332,1.7538348357533335,-0.16231187185999987,2.3960157870666667
9.446232674,-1.076572756076,1.8152756532666667,-0.009938939426666536,2.3506604637999997
9.454258645,-0.9692335408226664,1.8550440470666667,0.13680925367333346,2.3010754964
9.462284616,-0.8465098183426665,1.8727415085333334,0.2760928472000001,2.2517540034666665
9.470310587,-0.7187186361169998,1.8600165526666668,0.40845216114666677,2.1950190936
9.478336558,-0.5940893928903332,1.8237081687333332,0.5359277725200001,2.1391652455999997
9.48636253,-0.47242080772366646,1.7655901273999999,0.6676945368600001,2.0919996559333334
9.494357983,-0.3586669882503332,1.6872807026866665,0.78860028584,2.0555108572
9.502383954,-0.25774385532366645,1.5903157234866667,0.8909940083733334,2.019852177
9.510409925,-0.17215612331959979,1.481027396586667,0.9797365188200001,1.9872745826
9.518435896,-0.09718678792626648,1.3725824833866667,1.0577736536533335,1.9614233409333333
9.526461867,-0.027344282472933152,1.2691703161733332,1.1324121474933335,1.940343208
9.534487838,0.03571695486040018,1.1732005756,1.2064872741600001,1.9219971054
9.542483292,0.08706781068706686,1.0864991824866665,1.2850372314333334,1.9094505313333334
9.550509263,0.12373058795040019,1.00416283616,1.3650330861333335,1.8961268529333333
9.558535234,0.1453802823964002,0.9257680098733334,1.4490045547266668,1.8865043185333334
9.566561205,0.14840386708306685,0.84839232768,1.5337785720933332,1.8809271466
9.574587176,0.13478026389960018,0.7671683947866668,1.6169544855933333,1.8819340954
9.582613147,0.1152148961996002,0.6760681629533334,1.692613156666667,1.8871895969333332
9.590639117,0.10510456562060018,0.5806651910453334,1.7545482000000001,1.8968231134
9.598634571,0.11144402026860019,0.48096561433199997,1.7931337992666667,1.9007360206666666
9.606660542,0.13529988924193354,0.37522080739866664,1.7989404678666667,1.8903079977333335
9.614686514,0.17199121316193353,0.2631007432986667,1.7776973724666667,1.8700404916
9.622712485,0.21640747388193352,0.14520683289866668,1.746069781,1.8566815358
9.630738456,0.2577510833712002,0.01515396439866666,1.711218452466667,1.8592795300666665
9.638733909,0.28338127931120016,-0.129612437868,1.6702405293333336,1.872282247266667
9.64675988,0.28793222109786687,-0.2851217905213333,1.6328647613333336,1.8999120308000002
9.654785851,0.27366334597786685,-0.44986008001466665,1.5951923370000003,1.9396405688666667
9.662811822,0.24076175690320017,-0.6211174328346666,1.54643993374,1.9812012453333334
9.670837793,0.19949940046320017,-0.7947091896413333,1.4783983865933334,2.0207338726
9.678863763,0.15600666205653352,-0.9650285720213333,1.3821443557446669,2.0530333212
9.686859218,0.11639851729653351,-1.1245116789613334,1.2513008752846668,2.0762075634
9.694885189,0.08597316742666684,-1.2686812559346667,1.0850938160513335,2.0878186242666668
9.70291116,0.06527651946666685,-1.3899871031013333,0.8761465707846667,2.0943961956
9.710937131,0.04360644023333351,-1.4878552595266668,0.6330077806513335,2.1056711027333335
9.718963102,0.016792416578666848,-1.5632231155466667,0.3692390441180001,2.131882780533333
9.726989072,-0.015996678667999822,-1.6113176504133333,0.09746297191800014,2.168182852733333
9.734984527,-0.05914610226799983,-1.6333432117333333,-0.16934264508199987,2.2042884502666666
9.743010498,-0.1178303956946665,-1.6294430970666667,-0.41813939421533314,2.224248085466667
9.751036469,-0.18864169914799983,-1.59754248458,-0.6418157578153332,2.2161101717333334
9.75906244,-0.2674128214479998,-1.5388276656066666,-0.8235986392153332,2.1778942977333333
9.76708841,-0.35129524866133316,-1.4546836217133332,-0.9626461983286665,2.1128914739333333
9.775114381,-0.43525637782133314,-1.3492282470133332,-1.0481590589419998,2.0358314385333336
9.783140352,-0.5136201619799998,-1.2324196418266666,-1.0811237653619998,1.9695470830666666
9.791135806,-0.5824784914266665,-1.1122303088800003,-1.058354600322,1.9203542025999998
9.799161777,-0.6464784144933332,-1.0046124617266667,-0.9906306903066665,1.8923982961333332
9.807187748,-0.6969326018799998,-0.9208436489,-0.8948610624199999,1.8699281754
9.815213718,-0.7308018326266664,-0.8633911053133334,-0.7904282570399999,1.840897176733333
9.823239689,-0.7471582491666665,-0.8259932041,-0.6792514483933333,1.7904359090666666
9.83126566,-0.7495801845666664,-0.7967931191066667,-0.5635788600213333,1.7156374272666666
9.839261115,-0.7393245378599997,-0.7631773153933333,-0.45463012064799985,1.616436644386667
9.847287086,-0.7203622896906664,-0.7184244235466667,-0.3622366905813332,1.5127668072333333
9.855313056,-0.6925300677079999,-0.66432111266,-0.29711430871466654,1.4311253069666667
9.863339027,-0.6601375102479998,-0.6033820708666667,-0.2714944203813332,1.3880947504999999
9.871364998,-0.6255478381599997,-0.5338491201466667,-0.2891697565813332,1.3876556337000001
9.879360453,-0.5878398894733332,-0.45574056308000005,-0.35234057111466655,1.4299931359666667
9.887386424,-0.5478292703133331,-0.3690926075,-0.4631558736679999,1.5143121386333334
9.895412395,-0.5062837481266664,-0.2709274371333334,-0.6149651209879999,1.6212623962333335
9.903438365,-0.4712650338533332,-0.1596783081866667,-0.7967393875746666,1.7310330522333333
9.911464336,-0.44532616931333313,-0.04232699873333338,-1.0045467695346664,1.8327472636333335
9.91945979,-0.42266316412666644,0.08489820157999996,-1.2201546669679997,1.9129894431
9.927485761,-0.40637262661999984,0.21866947008666662,-1.426664479661333,1.9825161801666666
9.935511732,-0.3967603166866665,0.35611018336666667,-1.605614344341333,2.0431138398333335
9.943537702,-0.3971093058599999,0.48880936301999994,-1.7494021098546666,2.1021217446333336
9.951563673,-0.39889985323333316,0.6109272559266666,-1.866520309493333,2.1619233188333333
9.959589645,-0.40002446175333317,0.7185500383133333,-1.9534257571333329,2.2247820135799996
9.967585099,-0.40516057014933315,0.8083799123533333,-2.009132289933333,2.2816840843999997
9.97561107,-0.41538541714799987,0.8850834130999999,-2.0361311913333333,2.3187365092666665
9.983637041,-0.4219844261846665,0.9536903699,-2.030823421533333,2.3291702317333334
9.991663011,-0.42537001769133315,1.0171453793599998,-1.9948618253333332,2.3152716829999997
9.999688982,-0.41865851482133315,1.0733442306533334,-1.9348086039333332,2.2832669998
10.00768444,-0.39829568863133313,1.1159864902466665,-1.8571622848666667,2.234783945933333
10.01571041,-0.3613858938246665,1.1349711815133332,-1.7736359278666665,2.1728281139999996
10.02373638,-0.3052757302979998,1.1309844891133334,-1.6846087773999998,2.0946975034666666
10.03176235,-0.23038132191133315,1.1169295708466664,-1.5855356534533331,2.005646408733333
10.03978832,-0.14236496289799982,1.1010482788466665,-1.4779788017599997,1.9146893720666667
10.04778377,-0.04953350623799982,1.0889481545133333,-1.3571329752733332,1.8257431818666665
10.05580975,0.04545189538866685,1.0831021706466666,-1.2254158656199998,1.7504989008
10.06383572,0.13560262520866687,1.0838718732466668,-1.07757352196,1.6955419259333333
10.07186169,0.2109172860753335,1.08492013616,-0.8932381948266666,1.6685154033333334
10.07988766,0.2722561637553335,1.0811914921066665,-0.6702800433599999,1.6768587238666668
10.08791363,0.3248976111353335,1.0744898319533331,-0.42013120655999986,1.7113089018
10.0959396,0.3659992058980002,1.0592417081533332,-0.14599383675999988,1.7607195900000001
10.10393505,0.3953519980013335,1.0357188384133333,0.13800735470666678,1.8202177726666666
10.11196102,0.4185885826666668,1.0000404676199999,0.41772683457333337,1.8800827211333335
10.119987,0.4367300073233335,0.9509055296733333,0.6873754501066667,1.938415887
10.12801297,0.44895292917333346,0.8920266310533334,0.9445122401066667,1.9848846021333335
10.13603894,0.4545516888200002,0.8330206156133333,1.1858714421733334,2.0224720768
10.14406491,0.45074975887333346,0.7721960306533332,1.40547161104,2.0526999108666666
10.15206036,0.4311906774780001,0.7065986871866666,1.59510237376,2.0756784154
10.16008633,0.39519212642466683,0.6353824456666666,1.7414486567333334,2.0832366426
10.1681123,0.34704591432466686,0.55609367689,1.8490410487133333,2.083358040333333
10.17613828,0.28056089479800017,0.47119424345,1.9248085021933334,2.0829698624
10.18416425,0.19049896397800017,0.39593364398666664,1.9727886836000001,2.0881381451333336
10.19219022,0.08404410281800018,0.34172650973999996,1.9800821940000002,2.0894639708
10.20018567,-0.04089157580199983,0.3088057994933333,1.9439782460666668,2.0734825468666664
10.20821164,-0.18863413331533316,0.2848462740666667,1.8762292226000001,2.048373938066667
10.21623761,-0.35360520678866647,0.26294347445999994,1.7821865717333336,2.0220381788
10.22426358,-0.5338910937353332,0.22975441615333328,1.6771518070666667,2.0050383722666667
10.23228956,-0.7285166224219998,0.18537228902666664,1.5967487334,2.0178899318
10.24028501,-0.9335434477219998,0.13192813396666664,1.5486795424,2.0621185513333335
10.24831098,-1.1287171642886664,0.06275840600666663,1.5266345976000002,2.1241299744
10.25633695,-1.2885694743286666,-0.03379336195333337,1.5340675988000003,2.1934310673333335
10.26436292,-1.389919702315333,-0.15495803352666673,1.571070798066667,2.2732567514
10.27238889,-1.4199562073799998,-0.29064007599333336,1.6327457426666667,2.3690736905999996
10.28041486,-1.3822268804933333,-0.4366154591400001,1.7154001234666671,2.495682935533333
10.28841032,-1.290311265093333,-0.5893561283633334,1.7945324578666666,2.6451373418666666
10.29643629,-1.1669324478466663,-0.7509704510566667,1.8536749521333336,2.801206287866667
10.30446226,-1.0258687099533332,-0.9292443673266668,1.877500216066667,2.9389527232000003
10.31248823,-0.8929812193666664,-1.1179074526266668,1.8683452605333337,3.0404073818
10.3205142,-0.7904796680733331,-1.3060012897600002,1.83575038902,3.101982598
10.32850966,-0.7248785973599998,-1.4679403226,1.7872392017933336,3.1185778765333336
10.33653563,-0.6933363676933332,-1.5856186390266667,1.7088764190200003,3.1107656419999996
10.3445616,-0.6854488452933332,-1.6624469201066667,1.5934813817133333,3.1098662292
10.35258757,-0.6794997771599999,-1.7013522744466667,1.4043972969133334,3.1071223240666668
10.36061354,-0.6545103310933331,-1.7139719128866666,1.1680828095133335,3.076413770733333
10.36860899,-0.6355084974933332,-1.7190575639666668,0.9105812391800001,3.0422308035333336
10.37663496,-0.6359401145599999,-1.67974083826,0.6465445837800002,2.9920531841333333
10.38466093,-0.6754283904266666,-1.5964264353733335,0.36551650384666684,2.9342200982
10.39268691,-0.7535902658266664,-1.4683237910600002,0.08212534604666681,2.8506761503333338
10.40071288,-0.8725733120599998,-1.29989061754,-0.18075736348666652,2.7398460272666667
10.40870833,-1.0340183893266666,-1.1131121198733331,-0.40216137554666653,2.607025258133333
10.4167343,-1.2369813361933333,-0.9528237859533333,-0.5828183808866665,2.4802796862
10.42476027,-1.47111734546,-0.8326426068800001,-0.7366195995466664,2.4113542760666666
10.43278624,-1.728825735993333,-0.7644391656133335,-0.8739853857666665,2.4368509051333334
10.44081221,-1.9217129150866665,-0.7105246186133333,-1.024388567453333,2.4936453791999997
10.44883818,-2.0114561716666666,-0.6828081330133333,-1.1887753166933333,2.566473315733333
10.45686416,-1.9994041522666666,-0.6964800795466668,-1.3588170367866668,2.6554222188666667
10.46485961,-1.896369655953333,-0.7304388324800002,-1.518679269013333,2.7231960459999995
10.47288558,-1.7227555553733331,-0.7803729534866668,-1.64366089488,2.7670079886666668
10.48091155,-1.5095203042999998,-0.8386065245066667,-1.7446263948133331,2.8072901709333333
10.48893752,-1.2463667830333331,-0.9371517023133334,-1.9530217806133332,2.9746363953999997
10.49696349,-1.013064547433333,-1.0633757671533333,-2.0850951194799996,3.090540707
10.50495895,-0.7892529845666665,-1.1322219769733335,-2.152562205013333,3.1344256954
10.51298492,-0.5681062182333332,-1.1325519323933333,-2.17342510228,3.1565047968666664
10.52101089,-0.35631870036666646,-1.07887746498,-2.2165630022799996,3.228319653866667
10.52903686,-0.09939127369999981,-0.9492475509799999,-2.264219633753333,3.381940675266667
10.53706283,0.40448662830000015,-0.5966858546333335,-1.9424606641466664,3.862285966733333
10.5450888,0.9149159471000002,-0.17102750144000006,-1.6794859250866665,4.2602351622
10.55308426,1.2710019945666668,0.1779521068266666,-1.6876910846,4.3248583952
10.56111023,1.4493811527786669,0.37908547722666663,-1.7865460714666666,4.311614638666667
10.5691362,1.473444811512,0.4838924090666666,-1.8842338563333334,4.3505212964
10.57716217,1.3889709234453336,0.5757886013,-1.8942126911333332,4.3766485051999995
10.58518814,1.2460913737986667,0.7035790682199999,-1.776220385333333,4.345789386933333
10.5931836,1.0666039586186669,0.8983476798200001,-1.5382188480266665,4.305049730533333
10.60120957,0.8376771887453335,1.1453280766866667,-1.2560791016266666,4.313938476800001
10.60923554,0.5759791652120001,1.4393920739533332,-0.8995066007333333,4.1672751194
10.61726151,0.3438258210786668,1.71089790662,-0.6640565872413332,4.0565741976
10.62528748,0.11284784081200012,1.8708007494199999,-0.5019326528346666,4.0038831088
10.63328293,-0.16441866952133324,1.90113987124,-0.3844779014846666,4.006683424799999
10.6413089,-0.4952027439879999,1.8223845799266665,-0.29992151264466654,4.023731481
10.64933487,-0.8904386162546666,1.6820603846666666,-0.2850802103779999,4.004167732466667
10.65736084,-1.4666893283213331,1.40522980684,-0.6739204406446666,3.6280850339333335
10.66538682,-1.9621061285213333,1.1353170393733334,-1.005712858778,3.2639683276666664
10.67338227,-2.118476450428,1.01213525124,-1.100386969178,3.1698836652
10.68140824,-1.9312644481733332,1.0752028861066667,-1.0704930940446666,3.2472149776
10.68943421,-1.68525786404,1.1907433826,-0.9776836394446666,3.2173926529999997
10.69746018,-1.5869961579733334,1.2763593751466664,-0.8961323101113332,3.106803223733333
10.70548615,-1.5465811571066663,1.3353430428266668,-0.8958986599113332,3.0884511542
10.71351212,-1.507385762573333,1.3404721576266667,-0.9720454850646666,3.066073498266667
10.72150758,-1.4628370603733332,1.2795886832933334,-1.082312297738,2.9858926840666666
10.72953355,-1.418818219573333,1.2199251968266664,-1.1344286917779998,2.911200227666667
10.73755952,-1.3558355491066665,1.1732572713599998,-1.1074278830633333,2.8370425556666663
10.74558549,-1.327012427773333,1.1793521562266667,-1.0241525967366667,2.8357838243999995
10.75361146,-1.2458909989733333,1.1905445892666664,-0.9724575995866666,2.7791744382666668
10.76163743,-1.1166455747066666,1.1946576594399998,-0.8821116446933333,2.6659536709999996
10.76963289,-0.9815591019066665,1.1685167788573334,-0.7412457147999999,2.528534727133333
10.77765886,-0.90515729604,1.0980944791573333,-0.5760542233799999,2.4268485936666666
10.78568483,-0.8936668239066665,0.9998723983219999,-0.3467765172466665,2.389869486666667
10.7937108,-0.9636953673733331,0.9008588631286666,0.11869347888666679,2.491034825066667
10.80173677,-1.264121119373333,0.7818882941819999,0.37553431188666675,2.3326522983333335
10.80973223,-1.5540216447733333,0.6999880631553332,0.5334120750066668,2.2556043876666667
10.8177582,-1.5884272895066665,0.6376653829966666,0.6167289733466669,2.2196515946666664
10.82578417,-1.5341752053733333,0.5646395047433332,0.6521049498933335,2.1366487776
10.83381014,-1.5041197301066664,0.48044687906999994,0.6478256860800002,2.0800213081333334
10.84183611,-1.4738334815733332,0.40187753040999996,0.6547238985133335,2.0210354571333333
10.84983156,-1.4638158640399999,0.31108207703866664,0.6820430437133335,1.9794732456000002
10.85785753,-1.499633852773333,0.22515336670533326,0.7108348845866669,2.0010807636666668
10.86588351,-1.5090282441066665,0.12118630409866661,0.7358714421200001,2.0023808157333334
10.87390948,-1.53717397064,0.046432463331999935,0.8209411620866669,2.070916642333333
10.88193545,-1.5507664363066664,-0.007368262608000061,0.9433360417533335,2.1784755914000002
10.8899309,-1.5393835067733332,-0.0696517626453334,1.0841651280600002,2.2944981436000003
10.89795687,-1.5058629671733332,-0.1487093289853334,1.2160771051733335,2.3954771406666664
10.90598284,-1.4597790082399997,-0.22798358601666674,1.2694955189733335,2.433486257533333
10.91400881,-1.4523972193533332,-0.32428000769000004,1.1036911646400003,2.294388678733333
10.92203478,-1.3650867462133331,-0.4365084330100001,1.11387386324,2.2814271843333334
10.93006075,-1.211313724501333,-0.5519620577166667,1.133456166606667,2.2245836591333332
10.93808673,-1.1115277290333332,-0.636655791538,1.1536582946993335,2.2005294090666667
10.94608218,-0.9701671282533332,-0.7215290386846668,1.1321770032193335,2.2182557349333334
10.95410815,-0.8023143768533332,-0.8295802274780001,1.0635514577460001,2.270391362133333
10.96213412,-0.6331311225866666,-0.9569236278180001,0.9360883077193333,2.3716590881333333
10.97016009,-0.4490464527866665,-1.0667475620466669,0.7699686050660001,2.4747595411333334
10.97818606,-0.16328679718666647,-1.3340933561133332,0.5783973058526668,2.7012125555999997
10.98621203,0.09471812248000021,-1.6859356800400003,0.3520385742526668,2.9616845733333337
10.99420749,0.22421339356000022,-1.9686166683600002,0.07959877651933346,3.1180019563333334
11.00223346,0.2949346701333335,-2.069674293146667,-0.18732086814733323,3.0813614990000002
11.01025943,0.3157066821800002,-2.006372952406,-0.4255961735806666,2.933021576066667
11.0182854,0.37678548492666686,-1.8606758832260002,-0.6579293568473332,2.7905144731999996
11.02631137,0.46335050265333355,-1.7229671715926669,-0.8627096493606665,2.6627886316666665
11.03433734,0.5106745561000001,-1.634378250376,-1.0547909736406664,2.559664320693334
11.04236331,0.5103296121000002,-1.5999199469426668,-1.2712298234406665,2.5673087347599997
11.05035877,0.4922741731080002,-1.5833093245426668,-1.4831820965273332,2.664846058893333
11.05838474,0.49310243925200026,-1.5848188479426668,-1.68888618156,2.807378871693333
11.06641071,0.4589405218853335,-1.6330476204093334,-1.870804754893333,2.972463468893333
11.07443668,0.46381084121866684,-1.7346538622760004,-2.0197994232266665,3.1465528546933332
11.08246265,0.48541356721866685,-1.8657312790093334,-2.1056014696933327,3.2970892058933337
11.09048862,0.5297744591520002,-2.0235956509426667,-2.1286819776266666,3.4360485938266665
11.09848408,0.4923262278186669,-2.0021796226093334,-2.1295359294266665,3.402517207826667
11.10651005,0.47002754208533354,-1.880474948876,-2.1388170560266664,3.29311056676
11.11453602,0.5683310190720001,-1.8230252265426665,-2.1362756014266666,3.26384041036
