"Time (s)","Linear Acceleration x (m/s^2)","Linear Acceleration y (m/s^2)","Linear Acceleration z (m/s^2)","Absolute acceleration (m/s^2)"
9.795041668E-3,-1.091018812E0,1.102413574E0,1.047852035E0,1.871799034E0
1.975104167E-2,-8.496118364E-1,9.057611865E-1,9.015506065E-1,1.534613012E0
2.970604167E-2,-6.800949150E-1,5.294320482E-1,1.946946665E-1,8.835911952E-1
3.966104167E-2,-6.167967591E-1,-7.997996986E-2,-7.487763101E-1,9.733966304E-1
4.961604167E-2,-7.015068340E-1,-8.267015684E-1,-1.990003368E0,2.266199622E0
5.957104167E-2,-8.563630316E-1,-1.248064792E0,-3.393447976E0,3.715711578E0
6.952604167E-2,-1.118662401E0,-1.352544596E0,-4.494186907E0,4.824779623E0
7.948104167E-2,-1.420206236E0,-1.596874595E0,-5.072721534E0,5.504497977E0
8.943604167E-2,-1.687555846E0,-1.705130530E0,-5.154893040E0,5.685792567E0
9.939104167E-2,-2.065769250E0,-1.592423694E0,-4.806896001E0,5.468954651E0
1.093460417E-1,-2.879813058E0,-1.931542321E0,-4.069146954E0,5.346226326E0
1.193010417E-1,-3.991492130E0,-2.478387378E0,-3.279391311E0,5.729644036E0
1.292570417E-1,-5.014714816E0,-3.033802114E0,-2.597730803E0,6.410891145E0
1.392120417E-1,-5.867318965E0,-3.578394238E0,-2.406767318E0,7.281680169E0
1.491670417E-1,-6.157304024E0,-3.957791995E0,-3.109822934E0,7.952830250E0
1.591220417E-1,-5.742624167E0,-4.065891809E0,-4.074100131E0,8.130651905E0
1.690770417E-1,-4.834785465E0,-4.100174620E0,-4.403638095E0,7.718718215E0
1.790320417E-1,-4.170408450E0,-4.521735479E0,-3.926076697E0,7.297429453E0
1.889870417E-1,-4.389025611E0,-4.692491718E0,-3.141537062E0,7.152082176E0
1.989420417E-1,-5.224509405E0,-4.372229192E0,-2.584689758E0,7.286460579E0
2.088970417E-1,-6.292991002E0,-4.283255619E0,-2.866060699E0,8.134022276E0
2.188520417E-1,-6.403874676E0,-4.238934309E0,-2.866026785E0,8.197090000E0
2.288070417E-1,-5.577882375E0,-4.492290071E0,-1.824190366E0,7.390609742E0
2.387630417E-1,-3.577503999E0,-4.308360640E0,-1.445514740E0,5.783599150E0
2.487180417E-1,-6.234071825E-1,-4.069625841E0,-2.334922433E0,4.733112483E0
2.586730417E-1,1.509341776E0,-4.260265537E0,-2.330179172E0,5.085047691E0
2.686280417E-1,2.981987597E0,-4.306441584E0,-1.309718419E0,5.399356580E0
2.785830417E-1,4.113127664E0,-4.884016682E0,4.206603885E-2,6.385390175E0
2.885380417E-1,4.809147471E0,-6.175825079E0,2.613602486E0,8.252250163E0
2.984930417E-1,5.055601471E0,-7.153594726E0,5.962521576E0,1.059644692E1
3.084480417E-1,4.957700370E0,-7.184082109E0,7.542611153E0,1.153606569E1
3.184030417E-1,2.805916531E0,-6.808401427E0,5.677065185E0,9.298202336E0
3.283580417E-1,8.649552226E-2,-6.031406454E0,1.106075685E0,6.132597224E0
3.383140417E-1,4.026133959E-1,-5.286467671E0,-1.678774205E0,5.561215768E0
3.482690417E-1,6.350264040E-1,-5.207526752E0,-3.053122191E-1,5.254979444E0
3.582240417E-1,8.981736202E-2,-5.834221970E0,1.730053994E0,6.085992111E0
3.681790417E-1,-1.795113478E-1,-5.223571512E0,2.874589448E0,5.964996912E0
3.781340417E-1,6.860320316E-1,-3.176365417E0,3.754931911E0,4.965828316E0
3.880890417E-1,1.078095881E0,-8.476457101E-1,3.918780541E0,4.151823083E0
3.980440417E-1,1.123717539E0,1.157521242E0,4.700544211E0,4.969679307E0
4.079990417E-1,2.185546246E0,2.606314516E0,5.395994207E0,6.378576740E0
4.179540417E-1,3.656873227E0,3.861350359E0,5.781986454E0,7.855833230E0
4.279090417E-1,3.999205192E0,3.521639993E0,5.693599942E0,7.798247925E0
4.378640417E-1,3.732911004E0,3.115359077E0,5.250695575E0,7.156108634E0
4.478200417E-1,3.150727131E0,3.254398264E0,4.714240437E0,6.537755915E0
4.577750417E-1,2.678925532E0,3.452651619E0,3.994452283E0,5.920565366E0
4.677300417E-1,2.442996082E0,3.370724527E0,3.645923147E0,5.533784354E0
4.776850417E-1,2.240958994E0,3.262770892E0,3.670553665E0,5.398197414E0
4.876400417E-1,2.022728919E0,3.182348873E0,4.235274537E0,5.670654903E0
4.975950417E-1,2.011204057E0,3.644188862E0,5.124069443E0,6.601601463E0
5.075500417E-1,2.417708775E0,4.439485620E0,5.802932349E0,7.695997151E0
5.175050417E-1,2.563871624E0,4.849293576E0,6.196952239E0,8.275947254E0
5.274600417E-1,2.255444155E0,4.970989337E0,6.422495134E0,8.428891212E0
5.374150417E-1,1.637649422E0,5.170140824E0,6.353540089E0,8.353425850E0
5.473700417E-1,9.779257679E-1,5.507716371E0,6.073436240E0,8.256991353E0
5.573260417E-1,4.904556781E-1,5.644795572E0,5.479255049E0,7.882036521E0
5.672810417E-1,2.784378313E-2,5.672549965E0,4.734008703E0,7.388466471E0
5.772360417E-1,-2.582677512E-1,5.608763275E0,3.916305415E0,6.845609966E0
5.871910417E-1,-1.278533902E-1,5.450485579E0,2.843083481E0,6.148761112E0
5.971460417E-1,5.730973005E-2,5.249398078E0,1.398393198E0,5.432767999E0
6.071010417E-1,-1.908132847E-1,4.700481353E0,-3.867348433E-1,4.720222294E0
6.170560417E-1,-1.011469271E0,3.153595775E0,-2.238900627E0,3.997613340E0
6.270110417E-1,-1.992058665E0,2.577633923E-1,-3.932552781E0,4.415847717E0
6.369660417E-1,-2.475250931E0,-3.579763071E0,-6.048523008E0,7.451590528E0
6.469209167E-1,-2.400410956E0,-6.757940540E0,-8.027877427E0,1.076468992E1
6.568759167E-1,-2.535087536E0,-9.185983391E0,-8.411119144E0,1.271046360E1
6.668319167E-1,-4.013018947E0,-1.073628550E1,-8.230993912E0,1.411103852E1
6.767869167E-1,-3.755399981E0,-9.176023244E0,-8.108875397E0,1.280844611E1
6.867419167E-1,-2.090924556E0,-4.807355007E0,-6.932005718E0,8.691106428E0
6.966969167E-1,-8.476392051E-1,-7.536242366E-1,-4.975057830E0,5.102709292E0
7.066519167E-1,-5.933270587E-1,1.879047189E0,-2.865173677E0,3.477366178E0
7.166069167E-1,2.974654019E-2,3.745553854E0,-1.123724336E0,3.910602884E0
7.265619167E-1,1.180442109E0,4.123132542E0,-2.219597214E-1,4.294523449E0
7.365169167E-1,2.730692102E0,1.882941434E0,7.971719599E-1,3.411397212E0
7.464719167E-1,3.612503970E0,-2.187448638E0,1.709437297E0,4.556017159E0
7.564269167E-1,3.557623174E0,-5.839958088E0,1.623705128E0,7.028386121E0
7.663819167E-1,3.697030735E0,-9.430066053E0,8.549769491E-1,1.016489880E1
7.763379167E-1,2.915915229E0,-1.208266771E1,1.330918084E0,1.250059053E1
7.862929167E-1,1.801215486E0,-1.077259437E1,2.740511624E0,1.126070915E1
7.962479167E-1,2.009761110E0,-4.511611610E0,1.121124372E0,5.064651903E0
8.062029167E-1,3.214699763E0,2.910822304E0,3.385169196E0,5.501504480E0
8.161579167E-1,5.066398355E0,9.362752322E0,7.285497386E0,1.289992231E1
8.261129167E-1,8.192323936E0,1.179378018E1,7.755449803E0,1.632036838E1
8.360679167E-1,6.276811756E0,1.106495866E1,7.930065204E0,1.499058405E1
8.460229167E-1,-1.911090442E-1,6.094873887E0,9.819872439E0,1.155914811E1
8.559779167E-1,-4.379944300E0,-1.638410876E0,7.263000809E0,8.638256944E0
8.659329167E-1,-5.036460026E0,-7.544236094E0,6.002256914E0,1.087697182E1
8.758879167E-1,-4.572598362E0,-9.566949956E0,4.099657433E0,1.136848179E1
8.858439167E-1,-3.332962623E0,-8.250221896E0,2.007422808E0,9.121652674E0
8.957989167E-1,-1.957982992E0,-4.337792600E0,6.522218227E-2,4.759663430E0
9.057539167E-1,3.721493658E-1,-3.031664371E-1,-6.870984176E-1,8.381582634E-1
9.157089167E-1,2.727010987E0,2.231647741E0,-2.668824175E-1,3.533845892E0
9.256639167E-1,3.588357309E0,3.750115852E0,2.942991346E-2,5.190428036E0
9.356189167E-1,3.478665589E0,4.250026478E0,7.702747679E-1,5.545914042E0
9.455739167E-1,2.810360123E0,4.064568585E0,2.154833454E0,5.390932110E0
9.555289167E-1,2.355788223E0,3.063515909E0,2.516322359E0,4.611588239E0
9.654839167E-1,1.303676198E0,1.668942112E0,2.855759075E0,3.555319859E0
9.754389167E-1,-2.017361759E-1,8.137570024E-2,2.943625184E0,2.951651862E0
9.853939167E-1,-1.235245503E0,-8.802228874E-1,2.943684826E0,3.311480656E0
9.953499167E-1,-1.501256831E0,-9.970783228E-1,2.472310367E0,3.059453514E0
1.005304917E0,-1.449824284E0,-5.179931402E-1,1.571150354E0,2.199731980E0
1.015259917E0,-1.376273035E0,5.578588718E-1,5.166015029E-1,1.572326652E0
1.025214917E0,-1.214653656E0,1.451013461E0,-4.305808111E-1,1.940676017E0
1.035169917E0,-8.171637364E-1,1.701917485E0,-1.105665210E0,2.187870027E0
1.045124917E0,-7.297439155E-1,1.460692942E0,-9.844623703E-1,1.906650522E0
1.055079917E0,-4.917758332E-1,1.005597716E0,-6.775449443E-1,1.308486679E0
1.065034917E0,-4.984431209E-1,3.930796570E-1,-2.782444711E-1,6.930924521E-1
1.074989917E0,-1.454255304E0,9.651607114E-1,1.165681032E0,2.098858251E0
1.084944917E0,-1.383407223E0,1.674305763E0,1.505144645E0,2.642456383E0
1.094899917E0,-1.058246630E0,1.760814149E0,1.070720496E0,2.316634365E0
1.104855917E0,-6.175035413E-1,1.005100118E0,9.099851420E-1,1.489835504E0
1.114810917E0,1.519043769E-1,-1.966418624E-2,3.578770068E-1,3.892782705E-1
1.124765917E0,7.045223893E-1,-4.818146628E-1,-4.863994646E-1,9.823856705E-1
1.134720917E0,5.189215319E-1,-8.346374094E-1,-1.480240330E0,1.776797849E0
1.144675917E0,-1.559934810E-2,-1.223001287E0,-2.671505123E0,2.938182280E0
1.154630917E0,-7.583058098E-1,-1.263891451E0,-3.870960842E0,4.142075222E0
1.164585917E0,-1.520461719E0,-1.191576011E0,-4.779316438E0,5.154951294E0
1.174540917E0,-2.269132048E0,-1.317416863E0,-5.003119202E0,5.649402552E0
1.184495917E0,-2.654551706E0,-1.563123881E0,-4.756225784E0,5.666717280E0
1.194450917E0,-2.726352591E0,-1.686149883E0,-4.377168919E0,5.425468425E0
1.204405917E0,-2.726802242E0,-1.824144757E0,-3.843890573E0,5.053558083E0
1.214361917E0,-3.171925626E0,-1.799476524E0,-3.158543981E0,4.824482150E0
1.224316917E0,-4.066401687E0,-1.994764171E0,-2.171423759E0,5.022926230E0
1.234271917E0,-4.938889877E0,-2.488804193E0,-1.465912459E0,5.721510191E0
1.244226917E0,-5.431114338E0,-3.002487935E0,-1.336593099E0,6.348103486E0
1.254181917E0,-5.290247312E0,-3.242356508E0,-1.571330448E0,6.400677443E0
1.264136917E0,-4.249982331E0,-3.448269716E0,-1.577346941E0,5.695694621E0
1.274091917E0,-2.835081566E0,-3.937096360E0,-1.608612295E0,5.111364666E0
1.284046917E0,-1.819675730E0,-4.249495550E0,-1.744113332E0,4.940785718E0
1.294001917E0,-1.567071921E0,-4.432754890E0,-2.064836034E0,5.135034389E0
1.303956917E0,-2.114061112E0,-4.518198498E0,-2.765655820E0,5.703702672E0
1.313911917E0,-2.915567320E0,-4.660841909E0,-3.154057120E0,6.338142978E0
1.323866917E0,-3.046887013E0,-4.539166029E0,-2.993601921E0,6.232912736E0
1.333822917E0,-2.722047871E0,-4.219765967E0,-2.957095415E0,5.827553751E0
1.343777917E0,-2.161446362E0,-3.844887523E0,-3.086376768E0,5.383375521E0
1.353732917E0,-1.643381886E0,-3.476418212E0,-3.111173640E0,4.946270214E0
1.363687917E0,-6.055094402E-1,-2.717710991E0,-3.259865996E0,4.287111034E0
1.373642917E0,4.557781810E-1,-1.530397015E0,-3.429410107E0,3.782948910E0
1.383597917E0,1.049154649E0,-1.142374615E0,-3.053675630E0,3.425008043E0
1.393552917E0,1.734292202E0,-1.362759097E0,-1.099531481E0,2.464518468E0
1.403507917E0,2.430044792E0,-2.376799023E0,8.432795942E-1,3.502200987E0
1.413462917E0,3.114160398E0,-3.370637988E0,2.630663491E0,5.289573313E0
1.423417917E0,3.222725651E0,-4.383707276E0,4.661642393E0,7.164758189E0
1.433372917E0,2.996989213E0,-4.706895749E0,7.130107630E0,9.054018266E0
1.443327917E0,2.091765094E0,-4.393437043E0,6.161891749E0,7.851539988E0
1.453283917E0,8.343794741E-1,-3.562233118E0,2.350398113E0,4.348570476E0
1.463238917E0,1.021085090E0,-3.318179693E0,3.728637859E-2,3.471933396E0
1.473193917E0,8.524983144E-1,-3.354705495E0,5.466515136E-1,3.504230330E0
1.483148917E0,-6.085986704E-2,-3.870955580E0,1.191433047E0,4.050618932E0
1.493103917E0,-2.008755389E-1,-3.891918433E0,2.063560464E0,4.409723558E0
1.503058917E0,-4.987239334E-1,-2.351624420E0,3.087795011E0,3.913226419E0
1.513013917E0,-6.766126788E-1,-8.790961289E-1,3.047526990E0,3.243152090E0
1.522968917E0,-1.778198031E-1,8.077811480E-2,3.414174894E0,3.419756598E0
1.532923917E0,5.574726267E-1,1.411081656E0,4.221277765E0,4.485656378E0
1.542878917E0,1.094596066E0,2.327656683E0,5.120683905E0,5.730403985E0
1.552833917E0,1.982916981E0,2.646242813E0,5.157729524E0,6.126722992E0
1.562789917E0,2.481592237E0,2.840338213E0,4.728150086E0,6.048241432E0
1.572744917E0,2.790128172E0,3.160597816E0,4.357388958E0,6.063087687E0
1.582699917E0,3.052485137E0,3.481714035E0,4.117375959E0,6.196191001E0
1.592654917E0,3.041336836E0,3.805108330E0,3.916097839E0,6.250152113E0
1.602609917E0,2.985753204E0,4.027431164E0,3.850240941E0,6.321335245E0
1.612564917E0,2.483587891E0,3.804423037E0,3.806423954E0,5.927116227E0
1.622519917E0,2.088021268E0,3.806144457E0,4.132490426E0,5.993667122E0
1.632474917E0,2.101543977E0,3.918340831E0,4.417505937E0,6.267714149E0
1.642429917E0,2.231966707E0,3.814256884E0,4.751731029E0,6.489158553E0
1.652386042E0,2.106810272E0,3.631323819E0,5.019549294E0,6.543778519E0
1.662341042E0,1.761731431E0,3.602057920E0,5.093337647E0,6.482330389E0
1.672297042E0,1.402696310E0,3.760452560E0,4.832907339E0,6.282161550E0
1.682252042E0,1.158624758E0,3.945573653E0,4.288419588E0,5.941422838E0
1.692207042E0,7.394825993E-1,3.917695883E0,3.716289709E0,5.450319692E0
1.702162042E0,4.885634460E-1,3.995639268E0,3.165126484E0,5.120727786E0
1.712117042E0,1.900604923E-1,4.150855361E0,2.368286354E0,4.782729709E0
1.722072042E0,5.757789798E-3,4.302548507E0,1.537219254E0,4.568916704E0
1.732027042E0,-4.624369171E-2,4.290238949E0,6.175168437E-1,4.334699040E0
1.741982042E0,-4.418615884E-1,3.877258294E0,-4.930272835E-1,3.933376341E0
1.751937042E0,-1.171359994E0,2.619092436E0,-1.934966159E0,3.460610273E0
1.761892042E0,-1.790089112E0,7.825311166E-1,-3.231647333E0,3.776283684E0
1.771847042E0,-2.081036915E0,-1.550685099E0,-4.008820353E0,4.775560652E0
1.781802042E0,-1.801305533E0,-3.895393433E0,-4.906620848E0,6.518720716E0
1.791758042E0,-1.661786582E0,-5.739444451E0,-6.479241192E0,8.813814366E0
1.801713042E0,-2.489549128E0,-6.824880050E0,-7.478503450E0,1.042616211E1
1.811668042E0,-2.719482113E0,-6.984596745E0,-7.833383832E0,1.084168238E1
1.821623042E0,-2.491176993E0,-5.907351342E0,-7.236352708E0,9.667862391E0
1.831578042E0,-2.186021333E0,-3.600465723E0,-5.469325308E0,6.903300805E0
1.841533042E0,-1.435605463E0,-1.116570268E0,-3.994340601E0,4.388900665E0
1.851488042E0,-7.069602397E-1,9.107734197E-1,-2.710521255E0,2.945543494E0
1.861443042E0,-1.304780957E-1,1.769570940E0,-1.458301723E0,2.296747648E0
1.871398042E0,1.223169394E0,8.422019523E-1,-6.166005850E-1,1.607993712E0
1.881353042E0,3.116575883E0,-1.393802549E0,2.809671906E-1,3.425590948E0
1.891308042E0,3.544883845E0,-3.736513474E0,1.714058644E0,5.428234653E0
1.901263042E0,3.538177673E0,-5.974832888E0,3.213003486E0,7.651190802E0
1.911219042E0,3.883781155E0,-7.534853067E0,2.893624474E0,8.957166371E0
1.921174042E0,3.492328486E0,-7.448481506E0,6.559783664E-1,8.252668818E0
1.931129042E0,1.540436538E0,-5.448655400E0,-5.028430045E-1,5.684508905E0
1.941084042E0,7.304115944E-1,-1.530003498E0,1.334850629E0,2.157831782E0
1.951039042E0,2.916944339E0,2.713420889E0,2.437904765E0,4.670609900E0
1.960994042E0,4.839492474E0,7.326584017E0,3.779675573E0,9.559574687E0
1.970949042E0,5.687300736E0,9.548074560E0,5.811417829E0,1.254127963E1
1.980904042E0,5.878786524E0,8.448086995E0,6.555630387E0,1.220272898E1
1.990859042E0,3.240692391E0,5.033511275E0,7.544636629E0,9.631192283E0
2.000814042E0,-1.804073751E0,-8.311583161E-2,7.037088954E0,7.265136702E0
2.010769042E0,-5.647115747E0,-4.916293897E0,4.891110524E0,8.943311696E0
2.020724042E0,-6.858957623E0,-7.423618560E0,3.604107076E0,1.073056383E1
2.030679042E0,-5.139845815E0,-6.636764013E0,2.601960095E0,8.788335900E0
2.040635042E0,-2.716306782E0,-3.337072631E0,1.151781323E0,4.454321104E0
2.050590042E0,1.141499470E-1,3.773179024E-1,-2.047884956E-1,4.442266739E-1
2.060545042E0,3.034363446E0,3.015572249E0,-5.005836403E-1,4.307159330E0
2.070500042E0,4.972779170E0,4.276145405E0,-6.905725408E-1,6.594758724E0
2.080455042E0,4.621465005E0,3.943135949E0,-2.809448250E-1,6.081545025E0
2.090410042E0,3.301252588E0,3.064735638E0,-2.103113370E-1,4.509446090E0
2.100365042E0,2.176212044E0,2.040206392E0,5.410196947E-1,3.031673349E0
2.110320042E0,9.335842851E-1,7.310048676E-1,1.714109076E0,2.084254701E0
2.120275042E0,-3.869951905E-1,-5.412866932E-1,2.114955589E0,2.217158927E0
2.130230042E0,-1.396857281E0,-1.278893652E0,2.469985514E0,3.112492197E0
2.140185042E0,-1.550095261E0,-9.004665327E-1,2.571251103E0,3.134480424E0
2.150140042E0,-1.326502997E0,-7.115359783E-2,1.769503112E0,2.212648707E0
2.160096042E0,-1.167195242E0,8.964144123E-1,2.728884216E-1,1.496787099E0
2.170051042E0,-1.120010916E0,1.528235300E0,-8.880680966E-1,2.092508668E0
2.180006042E0,-1.048072475E0,1.583506106E0,-1.251964885E0,2.274502929E0
2.189961042E0,-8.894656543E-1,1.185035316E0,-1.133813707E0,1.865741507E0
2.199916042E0,-4.751347306E-1,5.331953162E-1,-7.553526735E-1,1.039522928E0
2.209871042E0,-5.709260832E-1,3.830119210E-1,-1.062445297E-1,6.956598481E-1
2.219826042E0,-5.668004340E-1,8.919015312E-1,3.987870876E-1,1.129505296E0
2.229781042E0,-6.959473014E-2,1.639783802E0,2.980459573E-1,1.668102436E0
2.239736042E0,3.969163075E-2,1.409665461E0,-3.380420818E-1,1.450173985E0
2.249691042E0,1.897120348E-1,1.171453988E0,-3.108835924E-1,1.226761472E0
2.259646042E0,-1.741485009E-1,7.648935753E-1,-1.554616767E-1,7.997238366E-1
2.269601042E0,-6.688249916E-1,1.217472160E-1,-1.281417310E-1,6.917872196E-1
2.279556042E0,-8.102833177E-1,-3.749468565E-1,-4.122643715E-1,9.834155338E-1
2.289512042E0,-9.761505532E-1,-5.997015470E-1,-1.554210386E0,1.930824117E0
2.299467042E0,-1.317225951E0,-4.730099255E-1,-3.414689741E0,3.690383263E0
2.309422042E0,-1.885382355E0,-4.083514148E-1,-5.084361001E0,5.438027610E0
2.319377042E0,-2.312144897E0,-6.224612492E-1,-5.905274411E0,6.372263169E0
2.329332042E0,-2.399749783E0,-6.586520058E-1,-5.286453053E0,5.842876635E0
2.339287042E0,-2.340853264E0,-7.234730691E-1,-3.593765106E0,4.349500537E0
2.349242042E0,-2.388930533E0,-1.138866286E0,-2.327651128E0,3.524480853E0
2.359197042E0,-2.927450032E0,-1.557667260E0,-1.837303331E0,3.791038711E0
2.369152042E0,-3.553436275E0,-2.150472016E0,-1.658639465E0,4.472418152E0
2.379107042E0,-3.886948592E0,-2.499604585E0,-1.702651457E0,4.924978621E0
2.389062042E0,-3.774764497E0,-2.518157800E0,-2.054664218E0,4.981125451E0
2.399017042E0,-2.968983974E0,-2.704247777E0,-2.192941659E0,4.575676452E0
2.408972042E0,-2.078981326E0,-3.082368502E0,-2.297218418E0,4.370397167E0
2.418928042E0,-1.610858503E0,-3.369243427E0,-2.463666720E0,4.473960225E0
2.428883042E0,-1.700574233E0,-3.780964592E0,-2.777184191E0,4.990029860E0
2.438838042E0,-2.151235370E0,-3.939234686E0,-3.113842310E0,5.462728024E0
2.448793042E0,-2.490140281E0,-3.804895492E0,-3.302860865E0,5.620224036E0
2.458748042E0,-2.785446306E0,-3.734425433E0,-3.631696579E0,5.907102884E0
2.468703042E0,-2.874796732E0,-3.608499212E0,-4.198721253E0,6.238187475E0
2.478658042E0,-2.729541955E0,-3.525920155E0,-4.282903032E0,6.182699298E0
2.488613042E0,-2.620876422E0,-3.660918331E0,-3.900545415E0,5.956976647E0
2.498568042E0,-2.411021460E0,-3.376156590E0,-4.622380679E0,6.211107867E0
2.508523042E0,-2.215520390E0,-2.468355895E0,-4.749272275E0,5.792831653E0
2.518478042E0,-1.203413407E0,-2.976701714E0,-3.409350064E0,4.683228030E0
2.528433042E0,2.070803118E-1,-2.670495894E0,-1.191004738E0,2.931368769E0
2.538389042E0,1.534402212E0,-2.403413794E0,8.731062412E-2,2.852790066E0
2.548344042E0,3.485978994E0,-3.853947784E0,1.917165188E0,5.538996789E0
2.558299042E0,4.869680479E0,-5.689546067E0,5.040988694E0,9.027529531E0
2.568254042E0,4.741848650E0,-6.649957670E0,6.979886813E0,1.074364396E1
2.578209042E0,4.093473710E0,-6.129154358E0,5.963432572E0,9.480801032E0
2.588164042E0,2.746375796E0,-4.676039407E0,1.834915913E0,5.724931525E0
2.598119042E0,1.345146406E0,-4.241693026E0,-5.405563760E-1,4.482586282E0
2.608074042E0,9.160141329E-1,-4.433270615E0,-4.652126634E-1,4.550757416E0
2.618029042E0,-5.907970050E-2,-4.611806574E0,3.073463193E-1,4.622414093E0
2.627984042E0,-8.447821916E-3,-4.270813914E0,1.550075819E0,4.543419186E0
2.637939042E0,-4.072287494E-1,-3.354846413E0,2.621040144E0,4.276760590E0
2.647892542E0,6.283426711E-1,-9.268918544E-1,2.814480071E0,3.029066043E0
2.657847542E0,9.936702731E-1,7.508468091E-1,2.734983958E0,3.005210275E0
2.667802542E0,9.801277562E-1,1.299625540E0,3.061449796E0,3.467297480E0
2.677758542E0,1.341632376E0,2.297111413E0,4.306603844E0,5.061969473E0
2.687713542E0,2.083978356E0,2.975912340E0,4.907250009E0,6.105745056E0
2.697668542E0,2.783859372E0,3.261519004E0,4.792414494E0,6.430755468E0
2.707623542E0,3.035527335E0,3.484432406E0,4.342660992E0,6.341482467E0
2.717578542E0,3.179314460E0,3.786453373E0,4.012583914E0,6.367581900E0
2.727533542E0,3.367713503E0,4.230567529E0,3.643481934E0,6.520288065E0
2.737488542E0,3.267896562E0,4.708778552E0,3.525565814E0,6.729142419E0
2.747443542E0,2.990706672E0,4.722851631E0,3.620933316E0,6.660391281E0
2.757398542E0,2.727259202E0,4.371771355E0,3.887460515E0,6.454663182E0
2.767353542E0,2.497570631E0,4.145886982E0,4.444046448E0,6.570828468E0
2.777308542E0,2.566592334E0,4.177295886E0,5.004609658E0,7.005948540E0
2.787263542E0,2.448432531E0,4.033446779E0,5.335788935E0,7.122791471E0
2.797218542E0,2.251719771E0,4.020217454E0,5.516822240E0,7.188026011E0
2.807174542E0,1.996517020E0,3.989425431E0,5.390508934E0,6.997083825E0
2.817129542E0,1.738655979E0,3.941268348E0,4.982988993E0,6.586858136E0
2.827084542E0,1.276832655E0,3.895739588E0,4.373941841E0,5.994869123E0
2.837039542E0,9.740831240E-1,4.370915322E0,3.715452973E0,5.818791067E0
2.846994542E0,5.018993369E-1,4.933454890E0,3.113800794E0,5.855479100E0
2.856949542E0,-1.195046078E-1,5.163109547E0,2.345916368E0,5.672328019E0
2.866904542E0,-4.316123696E-1,4.920971670E0,1.270024595E0,5.100511139E0
2.876859542E0,-3.950637634E-1,4.451881717E0,4.538257957E-2,4.469606893E0
2.886814542E0,-6.710147738E-1,3.455711467E0,-1.648676248E0,3.887201557E0
2.896769542E0,-1.184659998E0,1.563341398E0,-3.525120256E0,4.034095742E0
2.906724542E0,-1.968347620E0,-1.472523029E0,-5.056479138E0,5.622339166E0
2.916679542E0,-2.750043755E0,-5.307181433E0,-6.690270714E0,8.971546000E0
2.926634542E0,-3.146531169E0,-8.576393618E0,-8.333589742E0,1.236543181E1
2.936589542E0,-4.230755224E0,-1.036657073E1,-9.505982208E0,1.468770834E1
2.946545542E0,-4.316581533E0,-1.038853989E1,-1.001672246E1,1.506284721E1
2.956500542E0,-4.071022741E0,-7.184435281E0,-8.755474538E0,1.203526779E1
2.966455542E0,-3.017005402E0,-2.517546181E0,-6.632804278E0,7.709374356E0
2.976410542E0,-1.671618821E0,1.196395286E0,-4.696221949E0,5.126419000E0
2.986365542E0,-1.037131969E0,4.070840893E0,-2.930851065E0,5.122233523E0
2.996320542E0,-7.237622870E-1,5.900963843E0,-1.250492848E0,6.075272709E0
3.006275542E0,-1.950919300E-1,6.789086904E0,4.562526825E-1,6.807196806E0
3.016230542E0,6.322619136E-1,6.391999565E0,2.119718877E0,6.763920586E0
3.026185542E0,1.113043446E0,3.722101842E0,3.869793446E0,5.483448654E0
3.036140542E0,2.454145991E0,-7.823118460E-1,7.308735391E0,7.749352062E0
3.046095542E0,5.999737349E0,-6.617249515E0,8.470277764E0,1.230977030E1
3.056050542E0,8.777847739E0,-1.250032965E1,4.625030929E0,1.595931588E1
3.066005542E0,8.316387818E0,-1.698509728E1,1.632545534E-1,1.891249555E1
3.075961542E0,4.068290922E0,-1.766533662E1,-8.962853057E0,2.022245890E1
3.085916542E0,-2.548852174E0,-8.759391587E0,-1.075396280E1,1.410217374E1
3.095871542E0,-1.597730773E0,2.778220317E0,2.667443940E0,4.169713291E0
3.105826542E0,3.675945968E0,1.082947842E1,8.814751271E0,1.443918355E1
3.115781542E0,7.762061250E0,1.507764431E1,8.065779079E0,1.877875782E1
3.125736542E0,9.237882108E0,1.592555023E1,7.372880516E0,1.983232167E1
3.135691542E0,5.592645425E0,1.154144242E1,9.469923599E0,1.594245994E1
3.145646542E0,-1.653226843E0,1.728779594E0,1.020338664E1,1.048002561E1
3.155601542E0,-4.256061096E0,-7.928999841E0,6.970913676E0,1.138317759E1
3.165556542E0,-6.111370636E0,-1.379853549E1,3.660237715E0,1.552886901E1
3.175511542E0,-7.038999825E0,-1.328868401E1,2.396221719E0,1.522755790E1
3.185466542E0,-3.980404055E0,-8.093398987E0,5.127461413E-1,9.033804968E0
3.195421542E0,-8.089426973E-1,-1.567673600E0,-1.633910712E0,2.404506814E0
3.205376542E0,2.483286760E0,2.500451261E0,-2.337157678E0,4.228625741E0
3.215332542E0,4.242954563E0,4.125187254E0,-9.601102520E-1,5.995135111E0
3.225287542E0,4.632521212E0,4.716136689E0,6.500712899E-1,6.642649376E0
3.235242542E0,4.112310808E0,4.297069082E0,2.278700870E0,6.369331247E0
3.245197542E0,3.127410481E0,2.860100632E0,2.127008893E0,4.741839177E0
3.255152542E0,1.704067214E0,1.114410306E0,1.806106682E0,2.721723121E0
3.265107542E0,-4.712417275E-3,-1.728097808E-1,2.497877902E0,2.503852919E0
3.275062542E0,-1.185524508E0,-8.417885542E-1,2.352940629E0,2.765936719E0
3.285017542E0,-1.840124175E0,-7.881900519E-1,1.554874629E0,2.534745677E0
3.294972542E0,-1.491642255E0,-2.445814294E-1,4.992335182E-1,1.591870220E0
3.304927542E0,-7.542676496E-1,4.087981421E-1,-8.272992269E-1,1.191830365E0
3.314882542E0,-2.564696959E-1,1.009455709E0,-1.744083511E0,2.031404644E0
3.324837542E0,-4.946868695E-2,1.381400605E0,-1.803823344E0,2.272552186E0
3.334792542E0,-4.955047488E-2,1.604927965E0,-1.300367551E0,2.066205409E0
3.344747542E0,-9.974005044E-2,1.549481742E0,-5.372059214E-1,1.642994811E0
3.354703542E0,-1.497381297E-1,1.324660978E0,-1.835587905E-1,1.345675312E0
3.364658542E0,-2.606413919E-1,1.082430714E0,-4.634250234E-1,1.205965563E0
3.374613542E0,-9.828672498E-2,9.177930021E-1,-6.071267800E-1,1.104810935E0
3.384568542E0,6.851357996E-2,7.144046223E-1,-6.021475835E-1,9.368296469E-1
3.394523542E0,1.814573742E-1,2.493229365E-1,-8.369770266E-1,8.919749147E-1
3.404478542E0,1.074972591E-1,-3.826090479E-1,-1.209700772E0,1.273311157E0
3.414433542E0,-4.674765591E-1,-6.499677211E-1,-1.980285442E0,2.136006274E0
3.424388542E0,-1.369902348E0,-2.430225617E-1,-3.235911707E0,3.522331186E0
3.434343542E0,-2.172983211E0,2.405410033E-1,-4.896513936E0,5.362421537E0
3.444298542E0,-2.721378949E0,1.234896863E-1,-6.158417333E0,6.734037210E0
3.454253542E0,-3.000040290E0,-2.424407637E-1,-5.641559722E0,6.394232977E0
3.464208542E0,-3.165349263E0,-3.448635167E-1,-3.802066316E0,4.959241381E0
3.474163542E0,-3.489810675E0,-6.242288625E-1,-2.136519097E0,4.139221433E0
3.484118542E0,-4.296843964E0,-1.589606506E0,-1.769041182E0,4.911132618E0
3.494073542E0,-5.102838787E0,-2.366793852E0,-2.141781299E0,6.018962034E0
3.504029542E0,-5.439085847E0,-2.531337424E0,-2.734934842E0,6.593268734E0
3.513984542E0,-5.104263754E0,-2.356375868E0,-3.143630950E0,6.441151391E0
3.523939542E0,-3.986227005E0,-2.816620152E0,-2.797229615E0,5.625642037E0
3.533894542E0,-2.765782120E0,-3.595430685E0,-2.558474936E0,5.207923439E0
3.543849542E0,-2.238317222E0,-4.185251607E0,-2.916138008E0,5.570480759E0
3.553804542E0,-2.412648740E0,-4.518469225E0,-3.249643601E0,6.066104319E0
3.563759542E0,-3.286301258E0,-4.781667019E0,-3.186077350E0,6.619305426E0
3.573714542E0,-3.532250935E0,-4.822423866E0,-3.076167530E0,6.722750575E0
3.583669542E0,-2.957398885E0,-4.690929927E0,-3.516666936E0,6.566428107E0
3.593624542E0,-2.457178357E0,-4.872771901E0,-3.776227178E0,6.636378770E0
3.603579542E0,-1.850138701E0,-4.455169022E0,-4.402977945E0,6.531290761E0
3.613534542E0,-4.041303098E-1,-3.114956789E0,-4.142133654E0,5.198417867E0
3.623489542E0,1.649833265E0,-2.990473661E0,-3.511609679E0,4.898600316E0
3.633444542E0,3.705520307E0,-2.687983162E0,-2.201701811E0,5.079726872E0
3.643399542E0,5.097955778E0,-2.558851497E0,-1.774690177E0,5.973809448E0
3.653355667E0,5.937772066E0,-4.068949319E0,-7.770142686E-1,7.239974920E0
3.663310667E0,6.334847710E0,-5.891501879E0,2.559029253E0,9.021569742E0
3.673265667E0,4.212651660E0,-6.626082904E0,5.643229687E0,9.669407942E0
3.683220667E0,2.950628979E0,-6.172923106E0,6.617362951E0,9.518439130E0
3.693175667E0,2.587767733E0,-5.395286694E0,3.662009422E0,7.015409706E0
3.703130667E0,1.375176390E0,-4.380684850E0,1.659066311E-1,4.594456972E0
3.713085667E0,1.579238954E0,-4.358813925E0,-7.413789976E-1,4.694986403E0
3.723040667E0,1.155342862E0,-4.498095771E0,-1.183474986E-1,4.645609629E0
3.732995667E0,2.060842751E-1,-4.412721160E0,7.593850596E-1,4.482325784E0
3.742950667E0,-4.965784438E-1,-3.288035542E0,2.092699917E0,3.929015248E0
3.752905667E0,-4.289979333E-1,-1.468531719E0,2.246757824E0,2.718187881E0
3.762860667E0,3.398093297E-1,3.831697959E-1,2.919890459E0,2.964464499E0
3.772815667E0,1.450165323E0,1.561306567E0,4.248447145E0,4.752889731E0
3.782770667E0,2.353399635E0,2.743030604E0,4.846150406E0,6.045484306E0
3.792725667E0,3.067994292E0,3.514860731E0,5.327934955E0,7.081929527E0
3.802681667E0,3.806128085E0,4.035702050E0,5.544604701E0,7.843222764E0
3.812636667E0,4.038165775E0,3.907380810E0,5.165532049E0,7.632635781E0
3.822591667E0,3.666569080E0,3.784272362E0,4.385046288E0,6.855149676E0
3.832546667E0,2.949984031E0,3.774708071E0,3.679997211E0,6.040960709E0
3.842501667E0,2.507206842E0,3.801753198E0,3.431620939E0,5.702230773E0
3.852456667E0,2.266561320E0,3.891306229E0,3.524526764E0,5.718553427E0
3.862411667E0,1.922647829E0,3.962568585E0,3.919189262E0,5.895639824E0
3.872366667E0,1.649723922E0,4.312087655E0,4.615847585E0,6.528532598E0
3.882321667E0,1.531993013E0,4.401180511E0,5.238136341E0,7.011095835E0
3.892276667E0,1.540924635E0,4.197396859E0,5.645103135E0,7.201373378E0
3.902231667E0,1.787713096E0,4.310320042E0,5.792282231E0,7.438098575E0
3.912186667E0,1.954438264E0,4.504813637E0,5.525915830E0,7.392490825E0
3.922141667E0,1.794852546E0,4.545762858E0,5.014615998E0,7.002273147E0
3.932096667E0,1.341611472E0,4.534337983E0,4.424920791E0,6.476115062E0
3.942052667E0,8.119968443E-1,4.828161154E0,3.796109758E0,6.195234322E0
3.952007667E0,2.126488893E-1,5.272579365E0,2.962946139E0,6.051806551E0
3.961962667E0,-3.311623210E-1,5.653053010E0,1.993442116E0,6.003373075E0
3.971917667E0,-4.870357879E-1,5.787536631E0,9.513335082E-1,5.885390348E0
3.981872667E0,-5.153619663E-1,5.462933716E0,-3.606588927E-1,5.499028785E0
3.991827667E0,-7.723524298E-1,4.131611590E0,-2.035162292E0,4.669970895E0
4.001782667E0,-1.477916939E0,1.707143142E0,-3.558726836E0,4.214630811E0
4.011737667E0,-2.573278625E0,-1.717885062E0,-4.405028856E0,5.383044787E0
4.021692667E0,-2.658302695E0,-5.209045858E0,-6.056945922E0,8.419461140E0
4.031647667E0,-2.467601604E0,-7.912106066E0,-8.877686023E0,1.214511380E1
4.041602667E0,-3.271872084E0,-9.958701711E0,-1.015567219E1,1.459515551E1
4.051557667E0,-3.588544419E0,-9.948456219E0,-9.937215532E0,1.451198418E1
4.061512667E0,-3.053075413E0,-6.366532602E0,-8.195851561E0,1.081785513E1
4.071467667E0,-1.849231359E0,-1.767161887E0,-5.832361386E0,6.368591452E0
4.081422667E0,-6.955860166E-1,1.925560620E0,-4.053127630E0,4.540866348E0
4.091377667E0,1.669369836E-1,4.437698711E0,-2.443987916E0,5.068936253E0
4.101333667E0,1.278680375E0,5.496433584E0,-5.852314425E-1,5.673473494E0
4.111288667E0,2.985769868E0,5.228254547E0,1.365047989E0,6.173558400E0
4.121243667E0,4.244729777E0,3.636479893E0,2.645339710E0,6.183812665E0
4.131198667E0,4.144378693E0,1.368701622E0,3.689040807E0,5.714738923E0
4.141153667E0,4.208506276E0,-1.509124260E0,3.964166629E0,5.975248796E0
4.151108667E0,5.619332117E0,-5.601075355E0,3.271655152E0,8.582113144E0
4.161063667E0,6.551937286E0,-1.062266825E1,1.156292742E0,1.253419227E1
4.171018667E0,5.753304107E0,-1.608422495E1,-4.292817279E0,1.761337788E1
4.180973667E0,2.699808571E0,-1.671785847E1,-1.038497543E1,1.986513209E1
4.190928667E0,3.089582139E-1,-7.432381783E0,-5.263693936E0,9.112750846E0
4.200883667E0,1.317340995E0,4.109780425E0,6.411904657E0,7.729049345E0
4.210838667E0,3.768736310E0,1.221089949E1,1.340410571E1,1.851970544E1
4.220793667E0,6.025620049E0,1.375519125E1,1.271273093E1,1.967554093E1
4.230748667E0,2.139305003E0,1.017784366E1,9.445322024E0,1.404917206E1
4.240703667E0,-2.285077990E0,2.931464730E0,9.145952768E0,9.872361365E0
4.250659667E0,-5.054359522E0,-5.352094481E0,6.511147109E0,9.827843212E0
4.260614667E0,-5.218098518E0,-1.033958232E1,3.520773436E0,1.210501385E1
4.270569667E0,-3.890211046E0,-1.002673523E1,2.468109435E0,1.103452426E1
4.280524667E0,-1.917057453E0,-6.590530078E0,2.022129433E-1,6.866664843E0
4.290479667E0,8.117798395E-1,-2.060473427E0,-1.483934601E0,2.665820540E0
4.300434667E0,3.584769749E0,1.304037849E0,-2.008684491E0,4.311137002E0
4.310389667E0,4.362269629E0,2.773943664E0,-6.356765413E-1,5.208478130E0
4.320344667E0,4.099108087E0,3.389669505E0,1.593103141E0,5.552524118E0
4.330299667E0,4.393062236E0,3.592749152E0,2.025042808E0,6.025582184E0
4.340254667E0,3.695010814E0,2.720509468E0,2.121509002E0,5.055202976E0
4.350209667E0,2.251534853E0,1.422064481E0,2.268973442E0,3.498559284E0
4.360164667E0,7.724037391E-1,5.442249191E-1,2.621364080E0,2.786456161E0
4.370119667E0,-6.720605484E-1,1.622052705E-1,2.734623477E0,2.820663307E0
4.380074667E0,-1.052830281E0,1.159099406E-1,1.834228281E0,2.118084064E0
4.390029667E0,-9.844994270E-1,4.455174869E-1,4.384037644E-1,1.166157285E0
4.399984667E0,-7.556582636E-1,9.935711628E-1,-9.346481860E-1,1.559413447E0
4.409940667E0,-6.551781750E-1,1.429656506E0,-1.660261921E0,2.286841886E0
4.419895667E0,-4.685698423E-1,1.461343153E0,-1.670667626E0,2.268526355E0
4.429850667E0,-5.294808725E-1,1.357358024E0,-1.137436057E0,1.848386210E0
4.439805667E0,-9.738545709E-1,1.528042341E0,-1.580040461E-1,1.818865416E0
4.449760667E0,-7.729133970E-1,1.585574850E0,2.219235418E-1,1.777833734E0
4.459715667E0,-5.548092565E-1,1.411659946E0,-1.926604933E-1,1.528958855E0
4.469670667E0,-3.954939723E-1,1.053782866E0,-7.167289636E-1,1.334381586E0
4.479625667E0,3.571157724E-2,5.953874713E-1,-9.224526483E-1,1.098490076E0
4.489580667E0,2.163797235E-1,-3.945350289E-2,-1.023923475E0,1.047280309E0
4.499535667E0,-1.956873044E-2,-6.633344561E-1,-1.233102937E0,1.400335099E0
4.509490667E0,-6.764528306E-1,-7.899892402E-1,-1.761600746E0,2.045704920E0
4.519445667E0,-1.594547110E0,-2.999300033E-1,-2.923852825E0,3.343868095E0
4.529400667E0,-2.553189346E0,-4.892365336E-2,-4.592635600E0,5.254852150E0
4.539355667E0,-3.118459856E0,-3.362529069E-1,-5.748140430E0,6.548204051E0
4.549310667E0,-2.706610637E0,-5.984449804E-1,-5.263381110E0,5.948702232E0
4.559265667E0,-2.058083962E0,-7.112401092E-1,-3.804002622E0,4.383150469E0
4.569221667E0,-2.054833933E0,-9.714909071E-1,-2.688456786E0,3.520502374E0
4.579176667E0,-3.086660943E0,-1.329591351E0,-2.267907495E0,4.054465852E0
4.589131667E0,-4.307666575E0,-1.967453581E0,-1.860020641E0,5.087881848E0
4.599086667E0,-5.087067093E0,-2.723888574E0,-1.809929591E0,6.047616530E0
4.609041667E0,-5.052981334E0,-3.001091620E0,-1.971472519E0,6.198860795E0
4.618996667E0,-3.821012172E0,-2.950305628E0,-2.127945179E0,5.275659959E0
4.628951667E0,-2.013024880E0,-2.869591833E0,-2.431495924E0,4.266028467E0
4.638906667E0,-7.788336298E-1,-2.872603734E0,-3.330871074E0,4.466893344E0
4.648861542E0,-6.002314509E-1,-3.450308640E0,-4.085540793E0,5.381129164E0
4.658816542E0,-1.094495128E0,-4.068945225E0,-3.798503900E0,5.672994510E0
4.668771542E0,-2.167791761E0,-4.188541251E0,-3.457800093E0,5.848040733E0
4.678726542E0,-2.930602266E0,-3.845950547E0,-3.917849665E0,6.223287816E0
4.688681542E0,-3.334854490E0,-3.352715102E0,-4.922818220E0,6.826133038E0
4.698636542E0,-3.214916110E0,-2.833770036E0,-5.287804930E0,6.806380770E0
4.708591542E0,-2.971708776E0,-2.515737053E0,-4.207179251E0,5.732394196E0
4.718546542E0,-2.578422713E0,-2.438963696E0,-3.997347824E0,5.345614765E0
4.728501542E0,-2.627168318E0,-1.815194424E0,-3.953290808E0,5.081874889E0
4.738457542E0,-2.280658664E0,-2.410456181E0,-2.729938104E0,4.297006515E0
4.748412542E0,-4.534084506E-1,-3.380399330E0,-2.561110861E0,4.265204297E0
4.758367542E0,1.526844686E0,-3.986800032E0,-1.721579332E0,4.603223282E0
4.768322542E0,3.670991330E0,-5.541888669E0,3.276218319E-1,6.655527284E0
4.778277542E0,4.674746588E0,-7.581880469E0,4.716992136E0,1.007909628E1
4.788232542E0,4.892963507E0,-8.175389814E0,8.711445004E0,1.290997152E1
4.798187542E0,3.477466910E0,-6.942014982E0,7.688305056E0,1.092677367E1
4.808142542E0,2.580833520E0,-5.179253710E0,2.780473834E0,6.420000420E0
4.818097542E0,1.668027608E0,-4.243501570E0,-1.031634929E0,4.674814681E0
4.828052542E0,7.183033995E-1,-3.887402628E0,-2.683811173E0,4.778148321E0
4.838007542E0,2.587684008E-1,-3.961393295E0,-1.287070106E0,4.173265793E0
4.847962542E0,-1.366001853E-2,-4.189142929E0,5.526134808E-1,4.225456986E0
4.857917542E0,1.771353317E-1,-3.366391740E0,2.724163101E0,4.334170610E0
4.867872542E0,1.728685892E0,-6.709522086E-1,3.965802096E0,4.377912521E0
4.877827542E0,1.986108392E0,1.097059863E0,4.558792208E0,5.092224788E0
4.887782542E0,2.222812745E0,2.101722025E0,4.730302738E0,5.633284651E0
4.897737542E0,2.576629664E0,2.596069610E0,4.654364948E0,5.919603949E0
4.907692542E0,2.765788260E0,2.628717538E0,4.440025611E0,5.854363161E0
4.917648542E0,3.148764513E0,2.874496477E0,4.024103221E0,5.862666176E0
4.927603542E0,3.363735642E0,3.405644683E0,3.668597187E0,6.030898648E0
4.937558542E0,2.998623802E0,3.660669824E0,3.460834798E0,5.862561366E0
4.947513542E0,2.589046226E0,3.587885438E0,3.136545294E0,5.423467402E0
4.957468542E0,2.198343024E0,3.503784351E0,3.156496578E0,5.203142077E0
4.967423542E0,2.195175734E0,4.123473435E0,3.848931165E0,6.052776287E0
4.977378542E0,2.419472879E0,4.376004739E0,4.351042390E0,6.628335867E0
4.987333542E0,2.346684839E0,4.354755372E0,4.883388691E0,6.951137259E0
4.997288542E0,2.086867027E0,4.250521737E0,5.345169623E0,7.140923423E0
5.007243542E0,2.060212933E0,4.110359300E0,5.505370468E0,7.172770378E0
5.017198542E0,1.962792619E0,4.107300621E0,5.485662428E0,7.128461653E0
5.027153542E0,1.654862748E0,4.272942885E0,5.398680418E0,7.081127161E0
5.037108542E0,8.941014730E-1,4.507554227E0,4.961978193E0,6.763038529E0
5.047063542E0,5.850431621E-2,4.957998578E0,4.347267720E0,6.594233032E0
5.057018542E0,-7.920910949E-1,5.426241853E0,3.477023691E0,6.493165846E0
5.066973542E0,-1.386499377E0,5.714678569E0,2.622531769E0,6.438757998E0
5.076929542E0,-1.400611340E0,5.812691352E0,1.433331481E0,6.148457694E0
5.086884542E0,-1.252199943E0,5.445616602E0,-2.938681948E-1,5.595453815E0
5.096839542E0,-1.238973249E0,4.160489234E0,-2.338281659E0,4.930749080E0
5.106794542E0,-1.501341177E0,1.851078787E0,-4.182148782E0,4.813614696E0
5.116749542E0,-2.592684364E0,-1.775633333E0,-5.125828285E0,6.012403975E0
5.126704542E0,-3.395386328E0,-5.808177302E0,-6.335536512E0,9.241352433E0
5.136659542E0,-3.439747984E0,-8.445217182E0,-8.499937180E0,1.246605357E1
5.146614542E0,-3.866858436E0,-9.178687820E0,-9.289996587E0,1.362001986E1
5.156569542E0,-3.802542864E0,-8.513246613E0,-8.586356104E0,1.267518092E1
5.166524542E0,-3.227784662E0,-5.730509321E0,-7.047188265E0,9.639512091E0
5.176479542E0,-2.149634402E0,-2.283730060E0,-5.302259831E0,6.160382324E0
5.186434542E0,-9.400681163E-1,6.425107670E-1,-3.788834944E0,3.956237908E0
5.196389542E0,1.798477454E-1,2.343659928E0,-2.153248274E0,3.187721004E0
5.206344542E0,1.931337230E0,2.548733475E0,-7.377660030E-1,3.281829444E0
5.216299542E0,4.230945843E0,1.166110218E0,1.020953089E-1,4.389890571E0
5.226254542E0,5.681188057E0,-1.349391192E0,2.677749950E-1,5.845379182E0
5.236209542E0,4.828074323E0,-3.953459208E0,8.787224919E-1,6.301769164E0
5.246164542E0,4.238352219E0,-7.058686230E0,1.919219022E0,8.454116304E0
5.256120542E0,4.974802306E0,-1.033714052E1,1.136685274E0,1.152810416E1
5.266075542E0,3.165911765E0,-1.059958227E1,-6.267954978E-1,1.108002772E1
5.276030542E0,1.562932604E-1,-6.960195145E0,-3.940292448E-1,6.973091358E0
5.285985542E0,7.448119710E-1,-1.533298404E0,1.855807723E0,2.519875229E0
5.295940542E0,2.775563635E0,4.999805585E0,4.671844907E0,7.384303909E0
5.305895542E0,4.325341246E0,1.060781632E1,8.889266433E0,1.450011730E1
5.315850542E0,6.779345443E0,1.194923191E1,1.080191348E1,1.747641275E1
5.325805542E0,4.772219965E0,9.518215753E0,9.105509917E0,1.401002589E1
5.335760542E0,-1.200221704E0,2.850311224E0,8.195881966E0,8.759982159E0
5.345715542E0,-7.103638455E0,-5.778044845E0,5.135582610E0,1.049865183E1
5.355670542E0,-7.105560434E0,-1.019935907E1,4.397464020E0,1.318535568E1
5.365625542E0,-4.960365531E0,-9.234871961E0,3.433243541E0,1.103065037E1
5.375580542E0,-3.090401407E0,-5.453206288E0,9.238387308E-1,6.335733397E0
5.385535542E0,-1.040753223E-1,-9.904510885E-1,-6.597214615E-1,1.194595094E0
5.395490542E0,2.849296147E0,2.315783912E0,-1.042496570E0,3.816823648E0
5.405445542E0,4.329334310E0,4.283271992E0,-5.317411137E-1,6.113289060E0
5.415400542E0,4.648628830E0,4.634889042E0,1.533066854E-1,6.566235556E0
5.425355542E0,4.175470385E0,4.101603679E0,1.177420925E0,5.970261779E0
5.435311542E0,3.259677423E0,3.278074810E0,1.937774138E0,5.012608101E0
5.445266542E0,2.016931843E0,1.937483677E0,2.155467438E0,3.530990928E0
5.455221542E0,2.366993096E-1,4.342417163E-1,2.240795710E0,2.294723915E0
5.465176542E0,-1.229151681E0,-1.006290026E0,2.394843969E0,2.873797332E0
5.475131542E0,-1.956019351E0,-1.309228422E0,2.220642697E0,3.235945727E0
5.485086542E0,-2.156237955E0,-3.959108788E-1,1.551365715E0,2.685673682E0
5.495041542E0,-1.965262922E0,7.504720026E-1,4.232308976E-1,2.145831068E0
5.504996542E0,-1.625769926E0,1.553698754E0,-9.119422781E-1,2.426673936E0
5.514951542E0,-1.378386365E0,1.839405990E0,-1.712755884E0,2.866512879E0
5.524906542E0,-1.209141193E0,1.671816019E0,-1.816129979E0,2.748694113E0
5.534861542E0,-9.515052702E-1,1.297015927E0,-1.571374303E0,2.248739601E0
5.544816542E0,-6.657515489E-1,9.906037009E-1,-9.925566709E-1,1.552317481E0
5.554771542E0,-4.960625732E-1,1.030668823E0,-3.960641124E-1,1.210463993E0
5.564726542E0,-2.598835927E-1,1.237998810E0,-4.196722090E-2,1.265678389E0
5.574681542E0,-2.496382476E-1,1.212296205E0,2.145343423E-2,1.237918249E0
5.584636542E0,-5.202516273E-2,8.559855938E-1,3.167477649E-1,9.141920482E-1
5.594591542E0,-2.761819755E-1,5.905570865E-2,1.171203142E-1,3.057470005E-1
5.604546542E0,-6.941812961E-1,-9.143250185E-1,-6.921590365E-1,1.340508129E0
5.614502542E0,-1.263737961E0,-1.167177919E0,-1.803094781E0,2.492085215E0
5.624457542E0,-2.224647016E0,-4.407847506E-1,-3.265709703E0,3.975953396E0
5.634412542E0,-2.944632075E0,-1.748715091E-1,-4.927282569E0,5.742782568E0
5.644367542E0,-3.209252205E0,-7.221925288E-1,-6.217949005E0,7.034468821E0
5.654322292E0,-3.037961238E0,-1.215208703E0,-5.997352855E0,6.831850550E0
5.664277292E0,-2.282596432E0,-1.201663628E0,-4.612928655E0,5.285201294E0
5.674232292E0,-1.864384272E0,-9.417584002E-1,-2.959058325E0,3.621997208E0
5.684187292E0,-2.634980491E0,-1.309172873E0,-1.429652413E0,3.271232462E0
5.694142292E0,-3.678992659E0,-1.856436591E0,-5.972071248E-1,4.163892428E0
5.704097292E0,-4.269376668E0,-2.366407351E0,-7.040360472E-1,4.931848299E0
5.714052292E0,-4.208032652E0,-2.877842254E0,-1.601326665E0,5.343572019E0
5.724007292E0,-3.406512118E0,-3.174390813E0,-2.172590863E0,5.138213006E0
5.733962292E0,-2.723720759E0,-3.406363891E0,-1.580743442E0,4.639042957E0
5.743917292E0,-2.411557211E0,-3.894953138E0,-1.174616747E0,4.729269778E0
5.753872292E0,-2.646768478E0,-4.573152385E0,-1.647720228E0,5.534806958E0
5.763827292E0,-3.326378074E0,-4.813880500E0,-2.472284054E0,6.352198438E0
5.773782292E0,-3.906627688E0,-4.840562514E0,-3.034820698E0,6.921193685E0
5.783737292E0,-4.013148755E0,-4.729376539E0,-3.112331389E0,6.939666566E0
5.793692292E0,-3.221787173E0,-4.567969998E0,-3.234303138E0,6.458094091E0
5.803648292E0,-2.696731181E0,-4.679492773E0,-3.388736874E0,6.376013588E0
5.813603292E0,-2.972224501E0,-4.672439861E0,-4.205667745E0,6.953664784E0
5.823558292E0,-2.406487821E0,-3.797538525E0,-4.783265063E0,6.564457872E0
5.833513292E0,-7.840249340E-1,-3.727598809E0,-4.167347433E0,5.645925310E0
5.843468292E0,8.101779217E-1,-2.854018943E0,-2.006128235E0,3.581391195E0
5.853423292E0,2.900058750E0,-1.176794835E0,8.550500393E-2,3.130894112E0
5.863378292E0,3.920910097E0,-1.449676788E0,8.177202451E-1,4.259549880E0
5.873333292E0,3.632510803E0,-3.195870559E0,3.388792423E0,5.906999023E0
5.883288292E0,2.446307799E0,-4.842927713E0,7.327016126E0,9.117210976E0
5.893243292E0,1.282446420E0,-5.339934027E0,7.338165597E0,9.165600829E0
5.903198292E0,-5.236042745E-1,-4.691889455E0,4.288336265E0,6.377916275E0
5.913153292E0,-1.345946451E0,-4.218818718E0,1.030923907E0,4.546735898E0
5.923108292E0,-5.280515937E-1,-4.252815015E0,-3.484751956E-1,4.299617308E0
5.933063292E0,-5.128804079E-1,-4.805207325E0,1.160157752E-1,4.833893193E0
5.943018292E0,-1.066623498E0,-5.117667326E0,1.943879654E0,5.577353553E0
5.952973292E0,-5.712514076E-1,-3.910647649E0,3.951137571E0,5.588468602E0
5.962928292E0,-3.520301200E-1,-2.594047058E0,4.376584490E0,5.099754616E0
5.972883292E0,-4.375437851E-1,-1.056828681E0,4.052013151E0,4.210361267E0
5.982838292E0,-3.052237252E-1,4.975734937E-1,3.986738344E0,4.029246024E0
5.992793292E0,1.836769956E-1,1.500366300E0,4.711474411E0,4.948012470E0
6.002749292E0,1.090823077E0,2.258502833E0,5.179999230E0,5.755269069E0
6.012704292E0,2.040759100E0,2.753253876E0,5.295568278E0,6.307784714E0
6.022659292E0,2.692343138E0,3.364789018E0,4.975343174E0,6.582139197E0
6.032614292E0,2.865245890E0,3.767791400E0,4.563456532E0,6.575030157E0
6.042569292E0,2.589976811E0,3.600450520E0,4.204238686E0,6.111206653E0
6.052524292E0,2.544812040E0,3.368226011E0,3.986732789E0,5.806466491E0
6.062479292E0,2.493349526E0,2.964074652E0,3.837501028E0,5.452425564E0
6.072434292E0,2.134140012E0,2.689157867E0,4.076122098E0,5.329249007E0
6.082389292E0,2.198904795E0,2.991822029E0,4.743394654E0,6.023784043E0
6.092344292E0,2.347668779E0,3.492174119E0,5.155637391E0,6.654879840E0
6.102299292E0,2.337996169E0,3.883452249E0,5.298431075E0,6.972861630E0
6.112254292E0,2.469964756E0,4.062990421E0,5.362834062E0,7.167189563E0
6.122209292E0,2.328567533E0,4.190248053E0,5.293317685E0,7.141401656E0
6.132164292E0,1.920819113E0,4.285463528E0,5.069209696E0,6.910255470E0
6.142119292E0,1.509904863E0,4.207007343E0,4.625165123E0,6.432019581E0
6.152074292E0,1.246929409E0,4.145214552E0,4.081816117E0,5.949694063E0
6.162029292E0,1.028227756E0,4.295823040E0,3.570228601E0,5.679602114E0
6.171984292E0,9.378406195E-1,4.733994670E0,2.983010567E0,5.673500031E0
6.181939292E0,8.862255659E-1,5.002338599E0,2.302186212E0,5.577530687E0
6.191895292E0,9.376258805E-1,4.968739328E0,1.424678771E0,5.253305855E0
6.201850292E0,6.923198350E-1,4.618020410E0,1.378343681E-1,4.671661115E0
6.211805292E0,-4.151198593E-1,3.313042914E0,-1.526914998E0,3.671518386E0
6.221760292E0,-1.773432733E0,1.031183378E0,-3.498936717E0,4.055978423E0
6.231715292E0,-2.963387604E0,-2.003409280E0,-5.111865134E0,6.239108909E0
6.241670292E0,-3.297143165E0,-4.774550373E0,-6.082203555E0,8.405990983E0
6.251625292E0,-3.648132809E0,-6.481625102E0,-6.610384884E0,9.950755010E0
6.261580292E0,-4.625600156E0,-7.687310445E0,-7.066038519E0,1.142014969E1
6.271535292E0,-5.218430640E0,-7.493901508E0,-7.535034331E0,1.183922804E1
6.281490292E0,-4.557596745E0,-5.264806076E0,-7.087297826E0,9.935776849E0
6.291445292E0,-3.196838566E0,-2.796415683E0,-5.821006093E0,7.205819136E0
6.301400292E0,-1.894454017E0,-7.133000833E-1,-4.859905981E0,5.264640460E0
6.311355292E0,-1.094643867E0,1.462901435E0,-4.075981472E0,4.466760657E0
6.321310292E0,-1.179122392E0,3.139073045E0,-2.837376598E0,4.392586386E0
6.331265292E0,-1.188052406E0,3.586852235E0,-1.164869438E0,3.953972469E0
6.341220292E0,-2.037371480E-1,2.207676496E0,3.732605195E-1,2.248258827E0
6.351175292E0,7.477426685E-1,-6.237914908E-1,3.654995686E0,3.782489708E0
6.361130292E0,2.001692391E0,-2.718426690E0,5.845902368E0,6.750643717E0
6.371085292E0,3.992075390E0,-3.775812610E0,5.112579664E0,7.505457855E0
6.381040292E0,5.050606195E0,-5.552003767E0,2.785504779E0,8.005773269E0
6.390995292E0,5.581562612E0,-1.027899815E1,-7.168873501E-1,1.171859939E1
6.400951292E0,4.562990802E0,-1.311377274E1,-4.974101225E0,1.474902042E1
6.410906292E0,3.696648619E0,-7.093671291E0,-5.803800076E0,9.882786992E0
6.420861292E0,5.094458558E0,2.740664821E0,3.360695967E-1,5.794626341E0
6.430816292E0,4.588649261E0,9.554979537E0,6.562361702E0,1.246667266E1
6.440771292E0,6.183784309E0,1.168411448E1,9.829689914E0,1.647363115E1
6.450726292E0,3.480520034E0,9.092062490E0,1.028693399E1,1.416335522E1
6.460681292E0,-2.860309086E0,3.251489275E0,1.084658270E1,1.167912269E1
6.470636292E0,-7.696037414E0,-4.909233969E0,8.945055302E0,1.278059406E1
6.480591292E0,-8.262084142E0,-9.928277478E0,5.066746849E0,1.387460456E1
6.490546292E0,-6.604496153E0,-8.871171055E0,4.045272481E0,1.177630140E1
6.500501292E0,-4.185280259E0,-5.334272752E0,1.298051469E0,6.903330664E0
6.510456292E0,-5.239330342E-1,-1.356463400E0,-1.533804188E0,2.113540647E0
6.520411292E0,2.755227311E0,1.525827416E0,-1.881831340E0,3.668884849E0
6.530366292E0,4.485822758E0,2.767619315E0,-6.640972254E-1,5.312565069E0
6.540321292E0,4.476804012E0,2.933906527E0,8.270779829E-1,5.416053883E0
6.550276292E0,3.576760526E0,2.922254196E0,2.404561164E0,5.207177723E0
6.560231292E0,2.722917059E0,2.506584991E0,3.069875926E0,4.808470009E0
6.570186292E0,1.708101208E0,1.737797754E0,2.899858775E0,3.787707973E0
6.580141292E0,3.861793578E-1,8.218594891E-1,2.946005001E0,3.082780074E0
6.590096292E0,-5.030232449E-1,2.176585096E-1,2.866488715E0,2.918418265E0
6.600051292E0,-9.680770102E-1,2.692742211E-1,1.877736243E0,2.129688968E0
6.610007292E0,-1.218323368E0,5.811342984E-1,6.260811874E-1,1.487953815E0
6.619962292E0,-1.192914293E0,7.863873553E-1,-6.885868263E-1,1.586064753E0
6.629917292E0,-9.970204353E-1,1.014466773E0,-1.626557400E0,2.160759486E0
6.639872292E0,-8.217124316E-1,1.287967361E0,-1.761287774E0,2.331567255E0
6.649828208E0,-6.561790721E-1,1.546188591E0,-1.467882679E0,2.230683682E0
6.659783208E0,-1.579151684E-1,1.688077710E0,-9.545988858E-1,1.945713902E0
6.669738208E0,-2.657705694E-2,1.528528245E0,-7.497179311E-2,1.530596520E0
6.679693208E0,-7.307394040E-1,1.260017670E0,5.843824267E-1,1.569435385E0
6.689648208E0,-1.203468663E0,1.174423204E0,6.570902876E-1,1.805373737E0
6.699603208E0,-1.326848276E0,1.076375923E0,2.517881227E-1,1.726994132E0
6.709558208E0,-1.198810479E0,7.326274699E-1,-1.656052803E-1,1.414678296E0
6.719513208E0,-8.145014991E-1,9.806248426E-2,-5.790689157E-1,1.004166197E0
6.729468208E0,-6.281663775E-1,-5.308260244E-1,-1.082564469E0,1.359527527E0
6.739423208E0,-1.092139139E0,-6.195721400E-1,-2.025705298E0,2.383300125E0
6.749378208E0,-1.779998718E0,-2.311983222E-1,-3.472490345E0,3.908968828E0
6.759333208E0,-2.533012944E0,-1.939077044E-1,-5.416960568E0,5.983077516E0
6.769288208E0,-2.923951058E0,-5.031295180E-1,-6.859128361E0,7.473303886E0
6.779243208E0,-2.750434933E0,-6.209906745E-1,-6.401452174E0,6.994934716E0
6.789198208E0,-2.332738791E0,-6.132086152E-1,-4.397471037E0,5.015520570E0
6.799153208E0,-2.758162614E0,-9.517208862E-1,-2.314332194E0,3.724159926E0
6.809108208E0,-4.126745537E0,-1.771914504E0,-1.207984760E0,4.650692090E0
6.819064208E0,-5.416777550E0,-2.364298260E0,-7.180684876E-1,5.953738963E0
6.829019208E0,-5.885402648E0,-2.884580001E0,-1.359569733E0,6.693817743E0
6.838974208E0,-5.330559186E0,-3.318560346E0,-2.333708259E0,6.698798269E0
6.848929208E0,-3.822428368E0,-3.532962542E0,-2.665822214E0,5.848024540E0
6.858884208E0,-2.156736138E0,-3.408882871E0,-2.791846084E0,4.905751497E0
6.868839208E0,-1.616965920E0,-3.675004274E0,-3.029705554E0,5.029846016E0
6.878794208E0,-2.111185451E0,-4.214704617E0,-3.166967772E0,5.678954471E0
6.888749208E0,-2.834277574E0,-4.104213876E0,-3.292098187E0,5.976253959E0
6.898704208E0,-4.019673370E0,-3.675274415E0,-4.119085684E0,6.828783413E0
6.908659208E0,-4.524408826E0,-3.625304110E0,-4.579045209E0,7.387879273E0
6.918614208E0,-4.176346590E0,-3.700956556E0,-3.977457350E0,6.852672270E0
6.928569208E0,-3.998585680E0,-4.135073141E0,-3.457521181E0,6.711331465E0
6.938524208E0,-3.679808931E0,-3.678233691E0,-3.409191020E0,6.220368177E0
6.948479208E0,-2.581755626E0,-3.717847992E0,-2.734211249E0,5.288077813E0
6.958434208E0,-9.440826684E-1,-4.631417550E0,-1.848820592E0,5.075377640E0
6.968389208E0,1.486012848E-1,-4.087190877E0,-1.134359837E-2,4.089907124E0
6.978344208E0,2.534292022E0,-3.468922666E0,5.828632836E-1,4.335411183E0
6.988299208E0,4.643915389E0,-4.449912375E0,2.244173062E0,6.812046904E0
6.998254208E0,4.984816833E0,-6.017490665E0,6.170808753E0,9.956780274E0
7.008209208E0,4.936001353E0,-6.176519144E0,8.390280837E0,1.152867341E1
7.018164208E0,3.172115661E0,-5.996465832E0,5.275221137E0,8.593478823E0
7.028119208E0,8.519102307E-1,-5.066566755E0,1.217212543E0,5.279910614E0
7.038074208E0,9.338953570E-3,-4.579943342E0,-1.691632086E0,4.882375174E0
7.048030208E0,-7.922664383E-1,-4.906064193E0,-8.790291783E-1,5.046765724E0
7.057985208E0,-1.865175254E0,-5.171393883E0,7.214361915E-1,5.544606713E0
7.067940208E0,-2.426700769E0,-4.591949430E0,2.612621323E0,5.813834050E0
7.077895208E0,-1.351275311E0,-2.797200964E0,3.877804424E0,4.968666355E0
7.087850208E0,1.283308062E-1,-7.113248938E-1,3.422449289E0,3.497943829E0
7.097805208E0,9.127035125E-1,3.858174151E-1,3.802982575E0,3.929956647E0
7.107760208E0,1.703819000E0,1.412618304E0,4.717079552E0,5.210501814E0
7.117715208E0,2.331791250E0,2.555405148E0,5.813435703E0,6.764863677E0
7.127670208E0,2.903407450E0,2.841379017E0,6.081064517E0,7.313176821E0
7.137625208E0,2.989651835E0,2.951076876E0,5.456885941E0,6.886543182E0
7.147580208E0,2.970996585E0,3.268511689E0,5.013829547E0,6.681951519E0
7.157535208E0,2.783896210E0,3.590794428E0,4.668889724E0,6.514784263E0
7.167490208E0,2.601819177E0,3.924725406E0,4.339893797E0,6.403718506E0
7.177445208E0,2.439949975E0,4.059963902E0,4.050657766E0,6.232534886E0
7.187400208E0,2.266604881E0,4.041756842E0,4.162626976E0,6.229025558E0
7.197355208E0,2.108349697E0,3.843005304E0,4.523712715E0,6.299032064E0
7.207310208E0,2.069979976E0,3.861419941E0,4.978257426E0,6.631623335E0
7.217265208E0,2.281649621E0,4.224084721E0,5.372980735E0,7.205396499E0
7.227220208E0,2.316932744E0,4.326376496E0,5.618181385E0,7.459870843E0
7.237175208E0,2.129466771E0,4.415854683E0,5.802772136E0,7.596483777E0
7.247130208E0,1.818102537E0,4.509041759E0,5.752656235E0,7.531932566E0
7.257085208E0,1.382854515E0,4.473131084E0,5.405570192E0,7.151319976E0
7.267040208E0,8.449332599E-1,4.552953764E0,4.851825421E0,6.706974735E0
7.276996208E0,3.620007921E-1,4.932961385E0,4.176237540E0,6.473493075E0
7.286951208E0,2.430190168E-1,5.458897383E0,3.500443252E0,6.489354501E0
7.296906208E0,3.651776940E-1,5.933993595E0,2.399022827E0,6.411001892E0
7.306861208E0,7.089640805E-1,5.895562186E0,9.007308269E-1,6.005963667E0
7.316816208E0,5.655010730E-1,5.164086617E0,-1.056651218E0,5.301329442E0
7.326771208E0,-4.127812654E-2,3.399772909E0,-3.303505813E0,4.740602322E0
7.336726208E0,-1.218905386E0,2.473114944E-1,-5.710518275E0,5.844391524E0
7.346681208E0,-2.459927718E0,-4.001539693E0,-7.615672113E0,8.947738598E0
7.356636208E0,-4.021416133E0,-7.756745546E0,-7.703175695E0,1.164808160E1
7.366591208E0,-4.875350231E0,-1.029224560E1,-7.969909301E0,1.390031704E1
7.376546208E0,-4.827772899E0,-1.126308338E1,-9.076777868E0,1.524966671E1
7.386501208E0,-4.248468195E0,-8.844504828E0,-8.461795208E0,1.295672512E1
7.396456208E0,-3.161172012E0,-4.402811299E0,-6.715573955E0,8.629987796E0
7.406411208E0,-2.027336378E0,-3.200409168E-1,-4.750302262E0,5.174735796E0
7.416366208E0,-8.885265183E-1,3.553227237E0,-2.626924782E0,4.507287098E0
7.426321208E0,2.850400686E-2,5.803744528E0,-1.016886643E0,5.892225510E0
7.436276208E0,2.499332762E-1,5.203253607E0,-3.910316697E-1,5.223908547E0
7.446231208E0,1.165944303E0,2.114905742E0,-2.370472920E-1,2.426611595E0
7.456186208E0,1.501575651E0,-2.144657544E0,1.331040583E0,2.936997523E0
7.466141208E0,1.476759921E0,-6.180764807E0,3.181079443E0,7.106471690E0
7.476096208E0,2.536854857E0,-9.275423571E0,2.348397342E0,9.898691079E0
7.486051208E0,4.575508521E0,-1.274225235E1,1.099478272E-1,1.353928956E1
7.496006208E0,4.963092088E0,-1.610173736E1,-4.201202519E0,1.736514704E1
7.505962208E0,2.298130145E0,-1.244851162E1,-6.815111107E0,1.437680713E1
7.515917208E0,3.622987736E0,-5.244472969E-1,1.053112775E-2,3.660764402E0
7.525872208E0,6.345571504E0,1.099399100E1,1.124177261E1,1.695616606E1
7.535827208E0,7.874180440E0,1.660826996E1,1.360255670E1,2.286628298E1
7.545782208E0,6.301420348E0,1.600134885E1,9.487782165E0,1.964100491E1
7.555737208E0,1.039675508E-1,1.041526166E1,6.891886218E0,1.248945877E1
7.565692208E0,-6.706326583E0,-4.766895783E-1,5.928911780E0,8.964041727E0
7.575647208E0,-8.293163263E0,-1.030790679E1,5.243985311E0,1.423126421E1
7.585602208E0,-5.132256129E0,-1.232584172E1,7.011487505E0,1.508069574E1
7.595557208E0,-3.390102492E0,-9.844531317E0,4.462961899E0,1.132808989E1
7.605512208E0,-2.478077768E0,-5.814607485E0,-3.586951053E-1,6.330812887E0
7.615467208E0,9.206097521E-1,-1.260986554E0,-2.801552754E0,3.207227345E0
7.625422208E0,3.618106188E0,1.978589603E0,-2.591686244E0,4.870559187E0
7.635377208E0,4.702672013E0,3.655003873E0,-1.041619488E0,6.046416172E0
7.645332208E0,4.350024683E0,4.170406111E0,1.395530548E0,6.185669518E0
7.655286792E0,3.697321634E0,4.141633717E0,3.169685558E0,6.392982375E0
7.665241792E0,2.779960449E0,2.915778989E0,3.767099090E0,5.515521984E0
7.675196792E0,1.532449680E0,1.226271050E0,3.444995860E0,3.964863073E0
7.685151792E0,3.845191140E-1,-1.068572813E-1,3.050429256E0,3.076425210E0
7.695106792E0,-4.546636286E-1,-5.341408110E-1,2.716276084E0,2.805384321E0
7.705061792E0,-9.554109178E-1,-1.889486808E-1,2.004648889E0,2.228705632E0
7.715016792E0,-1.118596766E0,5.594803047E-1,4.905264294E-1,1.343463105E0
7.724971792E0,-1.161926389E0,1.249197983E0,-1.272006801E0,2.128043664E0
7.734926792E0,-1.141084281E0,1.613478933E0,-2.219607739E0,2.971875859E0
7.744881792E0,-9.794548148E-1,1.715747904E0,-2.197076079E0,2.954702337E0
7.754836792E0,-8.161330184E-1,1.503427902E0,-1.758003393E0,2.452946084E0
7.764792792E0,-8.588422510E-1,1.461878757E0,-5.462491520E-1,1.781316269E0
7.774747792E0,-7.958659843E-1,1.387206890E0,9.661166581E-1,1.868455784E0
7.784702792E0,-7.872178061E-1,1.188301570E0,1.743733263E0,2.252194083E0
7.794657792E0,-6.542796041E-1,1.001987645E0,1.088845110E0,1.617913692E0
7.804612792E0,-3.432129939E-1,6.941025048E-1,8.093306601E-2,7.785394066E-1
7.814567792E0,-3.828123848E-1,1.899199033E-1,-6.803146242E-1,8.033945976E-1
7.824522792E0,-7.171916977E-1,-5.901319939E-1,-1.558723413E0,1.814452639E0
7.834477792E0,-1.214074781E0,-1.016796303E0,-2.703799295E0,3.133429898E0
7.844432792E0,-2.093201316E0,-8.358115304E-1,-4.173632605E0,4.743340783E0
7.854387792E0,-3.005197535E0,-8.620900869E-1,-5.525929863E0,6.349040274E0
7.864342792E0,-3.464780206E0,-9.656068540E-1,-6.138392959E0,7.114560182E0
7.874297792E0,-3.000007838E0,-9.816709095E-1,-5.423549210E0,6.275237911E0
7.884252792E0,-2.150973707E0,-1.110449402E0,-4.095257111E0,4.757196293E0
7.894207792E0,-2.077908069E0,-1.383054782E0,-3.129094772E0,4.002721145E0
7.904162792E0,-3.373125686E0,-1.887310474E0,-2.516792767E0,4.612392389E0
7.914117792E0,-4.962086366E0,-2.345302995E0,-1.696575030E0,5.744659614E0
7.924072792E0,-6.065096356E0,-3.037931417E0,-1.530916248E0,6.954000695E0
7.934027792E0,-6.422960572E0,-3.485694235E0,-1.715535066E0,7.506500341E0
7.943982792E0,-5.613795973E0,-3.605284998E0,-1.811237029E0,6.913274529E0
7.953937792E0,-4.066796081E0,-3.740670260E0,-2.175687841E0,5.938439352E0
7.963892792E0,-2.748751812E0,-4.045464562E0,-2.641301039E0,5.558587160E0
7.973847792E0,-2.281776213E0,-4.365957468E0,-2.610699343E0,5.575288186E0
7.983802792E0,-2.591803189E0,-4.703630664E0,-2.580346447E0,5.958168592E0
7.993757792E0,-3.614030971E0,-4.626631020E0,-3.126365291E0,6.651397927E0
8.003712792E0,-4.466672542E0,-4.414781719E0,-3.779931974E0,7.330030487E0
8.013667792E0,-4.386703974E0,-4.290540081E0,-3.729517865E0,7.180613445E0
8.023623792E0,-4.059097930E0,-4.729902204E0,-3.104185048E0,6.963060798E0
8.033578792E0,-3.137672052E0,-4.193410812E0,-3.298096261E0,6.189274521E0
8.043533792E0,-1.520966918E0,-3.461606630E0,-4.494193339E0,5.873145205E0
8.053488792E0,-1.224143833E-1,-3.460503845E0,-3.013812822E0,4.590548973E0
8.063443792E0,1.747729981E0,-2.496065850E0,-1.331761472E-1,3.050023065E0
8.073398792E0,3.902646904E0,-2.623826342E0,1.027140613E0,4.813536680E0
8.083353792E0,5.267146717E0,-4.532469213E0,2.741491617E0,7.470066130E0
8.093308792E0,5.275542149E0,-5.812327656E0,6.689225231E0,1.031310971E1
8.103263792E0,4.169102767E0,-6.168876248E0,7.936221153E0,1.088209806E1
8.113218792E0,7.831592537E-2,-5.945836546E0,5.117757958E0,7.845415995E0
8.123173792E0,-2.018081698E0,-5.158131228E0,1.206300470E0,5.668697587E0
8.133128792E0,-1.961584585E0,-5.016414601E0,-1.327322923E0,5.547433251E0
8.143083792E0,-1.666830683E0,-5.319352997E0,1.355688643E-1,5.576039791E0
8.153038792E0,-2.019838494E0,-5.866279330E0,1.489892914E0,6.380655265E0
8.162993792E0,-1.993626888E0,-5.761061608E0,3.150694971E0,6.862307033E0
8.172948792E0,-1.010266571E0,-3.993761142E0,4.501940023E0,6.102313543E0
8.182903792E0,-4.946771485E-1,-1.285158359E0,4.242413695E0,4.460315174E0
8.192858792E0,2.814308017E-1,6.518949634E-1,4.528196945E0,4.583528980E0
8.202813792E0,9.568206085E-1,1.967776932E0,5.067510495E0,5.519720496E0
8.212768792E0,1.514380761E0,2.896294312E0,5.633497581E0,6.512922910E0
8.222723792E0,2.185504147E0,3.431684089E0,5.840464457E0,7.117858466E0
8.232678792E0,2.640295902E0,3.568469174E0,5.390126526E0,6.982735758E0
8.242633792E0,2.644566416E0,3.365474312E0,4.862860579E0,6.478237560E0
8.252588792E0,2.632378772E0,3.137129431E0,4.495130063E0,6.080887546E0
8.262543792E0,2.748956757E0,3.002394964E0,4.016751809E0,5.718866485E0
8.272498792E0,2.502763835E0,2.772432743E0,3.741167273E0,5.286448968E0
8.282453792E0,2.217901522E0,2.563683051E0,4.173316855E0,5.376628267E0
8.292409792E0,2.210953568E0,2.909699639E0,5.056159880E0,6.238543131E0
8.302364792E0,2.606365094E0,3.322475057E0,5.630485096E0,7.038063791E0
8.312319792E0,2.937947246E0,3.524775855E0,5.872530003E0,7.452663114E0
8.322274792E0,2.876637728E0,3.601374380E0,5.923266878E0,7.505333607E0
8.332229792E0,2.627157501E0,3.736573700E0,5.816233011E0,7.395438188E0
8.342184792E0,2.417007255E0,3.973836170E0,5.605934976E0,7.284216151E0
8.352139792E0,1.851576531E0,4.284763032E0,5.206180723E0,6.992270561E0
8.362094792E0,1.317337487E0,4.781046630E0,4.646093477E0,6.795584561E0
8.372049792E0,8.009494805E-1,5.314637802E0,3.887914259E0,6.633458550E0
8.382004792E0,4.583661586E-1,5.688829783E0,2.964165283E0,6.431108743E0
8.391959792E0,7.555919708E-1,5.860429190E0,1.772847719E0,6.169160280E0
8.401914792E0,1.001670141E0,5.853655191E0,4.535185245E-1,5.956030660E0
8.411869792E0,5.202677071E-1,5.296442437E0,-7.943161798E-1,5.380884608E0
8.421824792E0,-7.120723873E-1,3.664360002E0,-2.218624822E0,4.342450623E0
8.431779792E0,-2.200189136E0,7.577646500E-1,-3.558143868E0,4.251520585E0
8.441734792E0,-2.906319948E0,-2.258285902E0,-4.401348033E0,5.737457221E0
8.451689792E0,-2.822919650E0,-4.456771744E0,-4.916037204E0,7.211040946E0
8.461644792E0,-3.578708818E0,-6.147604662E0,-5.539922251E0,9.016148758E0
8.471599792E0,-4.483383299E0,-7.761293510E0,-6.420591280E0,1.102553378E1
8.481554792E0,-4.324845110E0,-7.667799456E0,-7.311033347E0,1.144336674E1
8.491509792E0,-3.255180914E0,-5.128724996E0,-6.798211484E0,9.116781353E0
8.501464792E0,-1.839773926E0,-2.362992577E0,-5.237832870E0,6.033522619E0
8.511419792E0,-9.294606824E-1,-3.179815274E-1,-3.655737406E0,3.785422749E0
8.521374792E0,-4.989664832E-1,1.086954705E0,-2.270273571E0,2.566043680E0
8.531329792E0,-7.650828058E-1,1.835210613E0,-1.803588871E0,2.684451994E0
8.541284792E0,-9.989489932E-1,1.737553926E0,-1.679481426E0,2.614890169E0
8.551239792E0,-9.771429719E-1,-2.219544590E-2,5.600711659E-1,1.126490451E0
8.561194792E0,4.368387571E-1,-2.959453012E0,3.888169490E0,4.905818201E0
8.571150792E0,3.076152035E0,-5.489035102E0,4.642742145E0,7.819672136E0
8.581105792E0,4.787618900E0,-6.782749692E0,3.161035480E0,8.883644152E0
8.591060792E0,5.961397156E0,-9.534216074E0,-8.773580441E-1,1.127870956E1
8.601015792E0,4.318907847E0,-1.347064936E1,-7.268087302E0,1.590397599E1
8.610970792E0,-6.182227488E-1,-1.058416200E1,-7.044885047E0,1.272937901E1
8.620925792E0,-6.726364260E-1,-2.551192814E-1,1.280791073E0,1.468996727E0
8.630880792E0,1.823840556E0,1.022745027E1,9.471768980E0,1.405850422E1
8.640835792E0,5.274876151E0,1.583977508E1,1.140151387E1,2.021675818E1
8.650790417E0,7.541337045E0,1.468513710E1,8.799147391E0,1.870695087E1
8.660745417E0,4.157395764E0,9.265727718E0,8.647254270E0,1.333839031E1
8.670700417E0,-2.920276375E0,-9.530025959E-2,9.390400296E0,9.834465617E0
8.680655417E0,-7.371930928E0,-1.011731211E1,6.028480507E0,1.389416954E1
8.690610417E0,-6.090959761E0,-1.272090533E1,4.962550635E0,1.495152608E1
8.700565417E0,-4.050252554E0,-9.539413664E0,2.270891329E0,1.060951960E1
8.710520417E0,-1.364146933E0,-4.087228884E0,-1.772214904E0,4.659086013E0
8.720475417E0,2.212637858E0,1.031291551E0,-2.972408396E0,3.846367147E0
8.730430417E0,4.719792953E0,3.156674334E0,-1.984367091E0,6.014877481E0
8.740385417E0,4.865084567E0,3.549035368E0,4.246867812E-1,6.036974304E0
8.750340417E0,4.317995097E0,3.910451767E0,2.431808897E0,6.312718051E0
8.760295417E0,3.979606495E0,4.004922307E0,3.231822749E0,6.505486056E0
8.770250417E0,3.029071131E0,2.947625265E0,2.926676445E0,5.140933926E0
8.780205417E0,1.075733606E0,1.075407624E0,2.600647395E0,3.012817820E0
8.790160417E0,-8.721087793E-1,-4.048957103E-1,3.078803455E0,3.225452677E0
8.800115417E0,-1.885263656E0,-1.195658537E0,2.766838127E0,3.555166890E0
8.810070417E0,-2.214520516E0,-9.896383256E-1,1.540202211E0,2.873274783E0
8.820025417E0,-2.111056812E0,6.695997477E-2,5.945916653E-2,2.112955251E0
8.829980417E0,-1.813764195E0,1.176153395E0,-1.160284052E0,2.453433603E0
8.839935417E0,-1.356283744E0,1.931911865E0,-2.002167331E0,3.095232313E0
8.849890417E0,-7.927315843E-1,2.122714114E0,-2.058604656E0,3.061403551E0
8.859846417E0,-6.009472963E-1,1.770003049E0,-1.353943834E0,2.308075465E0
8.869801417E0,-7.329970139E-1,1.367818692E0,3.355892479E-2,1.552204496E0
8.879756417E0,-5.252508505E-1,1.363816858E0,1.063602022E0,1.807521546E0
8.889711417E0,-5.455994533E-1,1.316453242E0,9.265614136E-1,1.699777619E0
8.899666417E0,-9.247152284E-1,1.192245517E0,3.909209380E-1,1.558642617E0
8.909621417E0,-7.879317512E-1,1.019479006E0,7.406668067E-3,1.288498641E0
8.919576417E0,-3.928824596E-1,6.178162211E-1,-3.057146537E-1,7.934197878E-1
8.929531417E0,-1.325647111E-1,-1.641874766E-1,-7.446370661E-1,7.739607809E-1
8.939486417E0,-2.638708091E-1,-1.045980926E0,-1.360245379E0,1.736079316E0
8.949441417E0,-8.215048555E-1,-1.283279648E0,-2.593448887E0,3.007931850E0
8.959396417E0,-1.929240419E0,-9.244915724E-1,-4.369302076E0,4.864920748E0
8.969351417E0,-3.153081220E0,-1.011198764E0,-6.003101252E0,6.855776306E0
8.979306417E0,-3.606739785E0,-1.556893088E0,-6.223375221E0,7.359543947E0
8.989261417E0,-3.190273020E0,-1.759427775E0,-5.008777553E0,6.193648408E0
8.999216417E0,-2.742117854E0,-1.695826440E0,-3.727480695E0,4.928402375E0
9.009171417E0,-2.940413893E0,-1.643553502E0,-3.092807536E0,4.573047172E0
9.019126417E0,-3.569888878E0,-1.955945676E0,-2.847512162E0,4.967711304E0
9.029081417E0,-4.311822191E0,-2.427403750E0,-2.312652874E0,5.461910187E0
9.039036417E0,-4.695020346E0,-2.940811504E0,-1.925592195E0,5.865108154E0
9.048991417E0,-4.418004996E0,-3.150863956E0,-1.833817806E0,5.727966442E0
9.058946417E0,-3.536894502E0,-3.396670961E0,-1.927835187E0,5.269112339E0
9.068901417E0,-2.797582495E0,-4.078625291E0,-1.928661398E0,5.308614402E0
9.078856417E0,-2.584917507E0,-4.899069169E0,-1.830619525E0,5.833853366E0
9.088811417E0,-3.193604763E0,-5.158758050E0,-2.392354370E0,6.521905813E0
9.098766417E0,-4.210284999E0,-5.017581121E0,-2.911537419E0,7.167961371E0
9.108721417E0,-4.836647511E0,-5.047652181E0,-2.486919635E0,7.420021628E0
9.118676417E0,-4.927573761E0,-5.016097682E0,-2.767946759E0,7.556702216E0
9.128631417E0,-3.395291896E0,-4.575876018E0,-3.070218573E0,6.472471744E0
9.138586417E0,-2.497896028E0,-4.387443062E0,-3.304658006E0,6.034062125E0
9.148541417E0,-1.869000649E0,-4.185522333E0,-4.254618296E0,6.254081665E0
9.158496417E0,-5.401514563E-1,-3.453686576E0,-4.874248323E0,5.998167327E0
9.168451417E0,2.748738071E-1,-2.241043047E0,-3.381003932E0,4.065589396E0
9.178406417E0,1.402632137E0,-1.047360284E0,-4.897581053E-1,1.817746814E0
9.188362417E0,2.584061767E0,-1.484147878E0,1.742733389E0,3.452128301E0
9.198317417E0,3.730959204E0,-2.909307876E0,3.964830873E0,6.172844786E0
9.208272417E0,2.728860462E0,-4.121597648E0,7.122110978E0,8.669412401E0
9.218227417E0,4.902583346E-1,-5.283825315E0,7.278514642E0,9.007548977E0
9.228182417E0,-8.330120297E-1,-4.929658293E0,4.817241479E0,6.942712395E0
9.238137417E0,-1.386021075E0,-4.643853993E0,6.610699756E-1,4.891160174E0
9.248092417E0,-1.157234144E0,-4.400073048E0,-5.887105358E-1,4.587637059E0
9.258047417E0,-1.789329120E-1,-4.392345952E0,5.768045814E-1,4.433669302E0
9.268002417E0,-5.619929995E-1,-4.669811538E0,1.848114395E0,5.053563371E0
9.277957417E0,-6.891683319E-1,-4.846151283E0,3.314136343E0,5.911314147E0
9.287912417E0,-5.031464750E-1,-3.707532334E0,4.795361491E0,6.082305830E0
9.297867417E0,-1.166834030E0,-2.174361400E0,4.122836966E0,4.804907262E0
9.307822417E0,-1.312995637E0,-6.000874633E-1,3.534006854E0,3.817494853E0
9.317777417E0,-7.662980765E-1,9.898798156E-1,4.019069061E0,4.209511956E0
9.327732417E0,2.753589068E-1,2.056499074E0,4.333405726E0,4.804520388E0
9.337687417E0,1.399372022E0,2.692149888E0,4.639382335E0,5.543444915E0
9.347642417E0,2.394976116E0,3.246993350E0,4.597102288E0,6.116553430E0
9.357597417E0,3.179408016E0,3.655213203E0,4.582306786E0,6.668339701E0
9.367552417E0,3.381312080E0,3.426865983E0,4.501041014E0,6.590603315E0
9.377507417E0,2.999324006E0,2.945240185E0,4.197804410E0,5.940702493E0
9.387462417E0,2.211196812E0,2.466536241E0,4.173337613E0,5.328221017E0
9.397417417E0,1.829258001E0,2.574562966E0,4.562847837E0,5.549246767E0
9.407372417E0,1.792648584E0,3.054421150E0,4.986510186E0,6.116237515E0
9.417327417E0,1.893580151E0,3.635412192E0,5.264556985E0,6.672138176E0
9.427282417E0,2.204469737E0,3.844472371E0,5.469168018E0,7.039279326E0
9.437237417E0,2.328429539E0,3.911994848E0,5.513617966E0,7.150193765E0
9.447192417E0,2.191516400E0,3.989785620E0,5.491271077E0,7.132684731E0
9.457147417E0,2.107848299E0,4.159626185E0,5.367358637E0,7.110137354E0
9.467102417E0,2.004934526E0,4.402046483E0,5.123695806E0,7.046278053E0
9.477057417E0,1.691031724E0,4.723987160E0,4.639214813E0,6.833590349E0
9.487012417E0,1.255912340E0,5.127657879E0,3.991937395E0,6.618591640E0
9.496967417E0,8.552163926E-1,5.612220733E0,3.170229349E0,6.502212759E0
9.506923417E0,6.343622334E-1,6.032380015E0,2.296667902E0,6.485885255E0
9.516878417E0,4.822859849E-1,6.069756587E0,1.239162406E0,6.213700046E0
9.526833417E0,-7.075035922E-2,5.611216182E0,-3.443150479E-1,5.622215355E0
9.536788417E0,-1.160365109E0,4.251465477E0,-2.570340399E0,5.101769855E0
9.546743417E0,-2.504013385E0,1.399646841E0,-4.820440198E0,5.609432950E0
9.556698417E0,-3.254190396E0,-2.079853438E0,-6.402881234E0,7.477461705E0
9.566653417E0,-3.387309277E0,-4.835763704E0,-6.719168823E0,8.944590790E0
9.576608417E0,-4.350046902E0,-7.112424481E0,-6.258052719E0,1.042462056E1
9.586563417E0,-5.493668436E0,-8.811628273E0,-6.684929867E0,1.234963453E1
9.596518417E0,-4.961634377E0,-8.428469587E0,-7.245825198E0,1.217205398E1
9.606473417E0,-3.731051297E0,-5.627217672E0,-6.584705082E0,9.431047849E0
9.616428417E0,-2.874770419E0,-2.544049271E0,-5.333575180E0,6.571416579E0
9.626383417E0,-2.308181362E0,2.205598980E-1,-3.940203278E0,4.571821272E0
9.636338417E0,-1.587148629E0,2.376534728E0,-2.939195626E0,4.099491311E0
9.646293417E0,-1.114617882E0,3.206690832E0,-1.921151819E0,3.900777285E0
9.656248708E0,-8.415543732E-1,2.561168749E0,-8.837309244E-1,2.837037093E0
9.666203708E0,-6.588454024E-1,6.221507621E-1,1.391090318E0,1.660205141E0
9.676158708E0,-3.278144611E-1,-1.532525986E0,4.506860455E0,4.771570955E0
9.686113708E0,1.843234455E0,-3.523950228E0,5.563182474E0,6.838474809E0
9.696068708E0,4.284219241E0,-5.579171101E0,3.704306133E0,7.950067207E0
9.706023708E0,6.491883457E0,-9.502319512E0,-1.563229423E0,1.161388450E1
9.715978708E0,5.648221455E0,-1.342750626E1,-5.119452481E0,1.544050270E1
9.725933708E0,2.701485845E0,-1.028850105E1,-5.254941239E0,1.186447163E1
9.735888708E0,2.447297440E0,-1.720630914E-1,-3.231089509E-1,2.474524169E0
9.745843708E0,2.375311491E0,9.515440664E0,7.048849459E0,1.207774790E1
9.755798708E0,3.646672175E0,1.325917896E1,1.094162100E1,1.757336378E1
9.765753708E0,3.031352715E0,1.181263862E1,1.099955404E1,1.642308496E1
9.775708708E0,-1.229160598E0,6.925677862E0,9.718770572E0,1.199709761E1
9.785663708E0,-6.750411081E0,-1.716070086E0,9.181321406E0,1.152430514E1
9.795618708E0,-6.798538928E0,-8.808818686E0,5.939786432E0,1.261334536E1
9.805573708E0,-4.368179410E0,-9.549001928E0,3.849198383E0,1.118395088E1
9.815528708E0,-2.751845282E0,-7.422067294E0,1.179301244E0,8.003154803E0
9.825483708E0,-6.860355400E-1,-3.497119694E0,-1.790867961E0,3.988445684E0
9.835438708E0,2.129279660E0,1.625075716E-1,-2.660995338E0,3.411911014E0
9.845393708E0,4.311224021E0,2.264785666E0,-1.957465221E0,5.248578547E0
9.855348708E0,4.542519407E0,3.330682794E0,2.546482882E-1,5.638508330E0
9.865304708E0,4.391006648E0,3.714622668E0,2.250368772E0,6.176044086E0
9.875259708E0,3.507854890E0,3.417145572E0,3.149778128E0,5.822631024E0
9.885214708E0,2.096505285E0,2.416976411E0,3.371777025E0,4.648224359E0
9.895169708E0,5.162784442E-2,1.048552532E0,2.857415006E0,3.044166284E0
9.905124708E0,-1.839670431E0,-2.470869613E-1,2.542050108E0,3.147611477E0
9.915079708E0,-2.594455193E0,-6.092506349E-1,1.786095171E0,3.208195762E0
9.925034708E0,-2.719527136E0,4.605091631E-2,1.186640888E0,2.967501496E0
9.934989708E0,-2.312707253E0,9.016476703E-1,-8.207499068E-2,2.483610208E0
9.944944708E0,-1.637856560E0,1.586009299E0,-1.284842609E0,2.617025054E0
9.954899708E0,-1.038134986E0,1.794676545E0,-1.584911191E0,2.609699529E0
9.964854708E0,-5.575340590E-1,1.570420622E0,-1.269498931E0,2.094920688E0
9.974809708E0,-5.158646075E-1,1.140849661E0,-6.061737935E-1,1.391079045E0
9.984764708E0,-4.333701888E-1,9.984553421E-1,7.628507774E-2,1.091119702E0
9.994719708E0,-4.837585697E-1,1.089664890E0,6.414904279E-1,1.353847072E0
1.000467471E1,-6.817961624E-1,1.245269238E0,9.184717908E-1,1.690896778E0
1.001462971E1,-7.993170109E-1,1.261999876E0,7.260416047E-1,1.660929795E0
1.002458471E1,-6.108777688E-1,1.087079836E0,3.575419613E-1,1.297208723E0
1.003453971E1,-4.111324967E-1,6.052148867E-1,5.875063017E-2,7.340072380E-1
1.004449471E1,-3.572990826E-1,-2.031281787E-1,-3.292637300E-1,5.266291820E-1
1.005444971E1,-3.997444595E-1,-1.097044076E0,-1.111734474E0,1.612220481E0
1.006440471E1,-5.970758548E-1,-1.380190816E0,-2.610236244E0,3.012434151E0
1.007435971E1,-1.397941793E0,-1.114988596E0,-4.590858047E0,4.926806109E0
1.008431471E1,-2.529124838E0,-1.058841292E0,-6.534847044E0,7.086737134E0
1.009426971E1,-3.268512858E0,-1.327730182E0,-7.230218394E0,8.045004771E0
1.010422471E1,-3.101264949E0,-1.414961869E0,-5.753730369E0,6.687703233E0
1.011417971E1,-2.530008937E0,-1.536528990E0,-3.539792089E0,4.614324934E0
1.012413471E1,-2.638019873E0,-1.925836608E0,-2.342518551E0,4.019376651E0
1.013408971E1,-3.776346169E0,-2.673731743E0,-1.916825464E0,5.008378149E0
1.014404471E1,-5.264554646E0,-3.395134313E0,-2.003681760E0,6.577021607E0
1.015399971E1,-6.332888893E0,-3.957194994E0,-2.526720462E0,7.883475772E0
1.016395471E1,-6.588651953E0,-4.500692520E0,-2.975584896E0,8.515907067E0
1.017390971E1,-6.166832061E0,-5.094227008E0,-2.700261145E0,8.442296888E0
1.018386471E1,-5.499232646E0,-5.995012214E0,-1.692443826E0,8.309398128E0
1.019381971E1,-4.922229406E0,-6.398534998E0,-1.103815736E0,8.147883260E0
1.020377471E1,-5.437463830E0,-6.641610770E0,-1.417189658E0,8.699737527E0
1.021372971E1,-5.833013935E0,-6.850890219E0,-1.817295621E0,9.179396044E0
1.022368471E1,-4.642079363E0,-6.789448262E0,-3.351384861E0,8.881288702E0
1.023363971E1,-2.121331393E0,-6.461911215E0,-5.487573298E0,8.738981870E0
1.024359471E1,1.037652006E0,-4.966105158E0,-5.634865830E0,7.582257912E0
1.025355071E1,3.491219854E0,-2.939160835E0,-5.397215105E0,7.068041693E0
1.026350571E1,3.568596058E0,-2.142454898E0,-4.741884903E0,6.309553332E0
1.027346071E1,3.494239356E0,-1.990029096E0,-1.184441823E0,4.191995576E0
1.028341571E1,3.470316350E0,-3.482119247E0,1.795323247E0,5.233682793E0
1.029337071E1,3.728630258E0,-5.604446275E0,3.008722236E0,7.373256482E0
1.030332571E1,2.861432628E0,-6.732182386E0,5.866810842E0,9.377075547E0
1.031328071E1,1.994887694E0,-6.466297796E0,7.184693727E0,9.869772442E0
1.032323571E1,9.141550107E-1,-5.037627715E0,4.246741512E0,6.651930986E0
1.033319071E1,-1.481806361E0,-4.962118526E0,9.496055098E-1,5.264990122E0
1.034314571E1,-5.844678692E-1,-4.668158530E0,2.768318935E-1,4.712742582E0
1.035310071E1,1.167758401E-1,-4.477907090E0,9.134707403E-1,4.571620861E0
1.036305571E1,3.699075433E-1,-4.689050047E0,2.320705221E0,5.244968508E0
1.037301071E1,1.047680346E-1,-4.229254244E0,3.184715241E0,5.295278932E0
1.038296571E1,-5.136450776E-1,-2.970546935E0,4.141424679E0,5.122438748E0
1.039292071E1,-5.142000514E-1,-1.177904052E0,4.413504979E0,4.596834329E0
1.040287571E1,-2.300569457E-1,4.009412384E-1,3.622154507E0,3.651531644E0
1.041283071E1,3.556169117E-1,1.567895794E0,4.174502963E0,4.473391957E0
1.042278571E1,1.460548662E0,2.499750765E0,5.137431500E0,5.897046608E0
1.043274071E1,2.834334877E0,3.464105145E0,5.426749392E0,7.034421626E0
1.044269571E1,3.803678978E0,4.149854903E0,5.306141213E0,7.735916498E0
1.045265071E1,4.063198582E0,4.166920586E0,5.128384688E0,7.757134741E0
1.046260571E1,3.850930328E0,3.746278324E0,4.932839763E0,7.293639270E0
1.047256071E1,3.327555411E0,3.330297462E0,4.707309732E0,6.657497361E0
1.048251571E1,2.678769996E0,3.587774926E0,4.878772607E0,6.621960417E0
1.049247071E1,2.353952782E0,4.263982027E0,5.097389182E0,7.050249138E0
1.050242571E1,2.059404848E0,4.534145610E0,5.159895333E0,7.171063003E0
1.051238071E1,1.862196683E0,4.677392453E0,5.286112161E0,7.299914960E0
1.052233571E1,1.848940022E0,4.699856871E0,5.571010142E0,7.519533750E0
1.053229071E1,1.654508114E0,4.737595970E0,5.868346905E0,7.721379933E0
1.054224571E1,1.517294867E0,4.925237213E0,5.945633063E0,7.868335138E0
1.055220071E1,1.228968955E0,5.199096236E0,5.768979322E0,7.862702385E0
1.056215571E1,8.197300062E-1,5.552635267E0,5.361083990E0,7.761761220E0
1.057211071E1,6.589413699E-1,6.037215663E0,4.714769025E0,7.688382381E0
1.058206571E1,7.211166412E-1,6.776069832E0,3.919872801E0,7.861331590E0
1.059202071E1,8.951987761E-1,7.232604643E0,2.777725935E0,7.799212277E0
1.060197571E1,9.005309983E-1,6.776518314E0,1.185640503E0,6.938148163E0
1.061193071E1,2.608455328E-1,5.341055523E0,-1.131370155E0,5.465794811E0
1.062188571E1,-8.101514630E-1,2.891206065E0,-4.170512823E0,5.138929374E0
1.063184071E1,-2.074286450E0,-5.997138262E-1,-6.880102909E0,7.210973373E0
1.064179571E1,-3.401361013E0,-4.544664166E0,-7.988393519E0,9.799880618E0
1.065175129E1,-3.903901424E0,-7.771044327E0,-8.239864722E0,1.198018977E1
1.066170629E1,-3.944710896E0,-9.487106227E0,-8.801814891E0,1.352914905E1
1.067166129E1,-3.661382308E0,-9.190416750E0,-8.829450586E0,1.326004065E1
1.068161629E1,-3.002756322E0,-6.385672878E0,-7.266348925E0,1.012882966E1
1.069157129E1,-2.356690594E0,-3.065991036E0,-5.336998140E0,6.590739012E0
1.070152629E1,-2.654287997E0,-5.541938370E-1,-3.649210744E0,4.546329798E0
1.071148129E1,-3.085133066E0,1.824473371E0,-2.575351755E0,4.413523057E0
1.072143629E1,-2.187749916E0,3.616226308E0,-1.731936798E0,4.567597561E0
1.073139129E1,3.378755458E-1,2.252735724E0,-1.187796371E0,2.569015054E0
1.074134629E1,3.056347515E0,-2.735952550E0,-9.701875627E-2,4.103182804E0
1.075130129E1,4.872378969E0,-8.380357527E0,9.828175485E-1,9.743531158E0
1.076125629E1,6.492992089E0,-1.329878098E1,1.381726295E0,1.486356920E1
1.077121129E1,6.229821777E0,-1.739580687E1,-5.696509516E-1,1.848646203E1
1.078116629E1,2.099503299E0,-1.545558962E1,-2.055500954E0,1.573239489E1
1.079112129E1,-4.079101693E-1,-4.792682004E0,3.150836474E0,5.750127127E0
1.080107629E1,4.834321781E0,6.838021667E0,6.084919587E0,1.035159185E1
1.081103129E1,9.724160535E0,1.370061216E1,6.445824355E0,1.799485269E1
1.082098629E1,1.230962154E1,1.570508213E1,8.040778724E0,2.151349599E1
1.083094129E1,1.026110918E1,1.464506730E1,7.876542131E0,1.953991489E1
1.084089629E1,8.065098902E-1,8.988593670E0,1.211502036E1,1.510691870E1
1.085085129E1,-7.814316646E0,-1.386209355E0,1.058317966E1,1.322833371E1
1.086080629E1,-7.628285726E0,-1.010448449E1,6.734934086E0,1.434052604E1
1.087076129E1,-4.696943496E0,-1.320104945E1,4.636830026E0,1.475903714E1
1.088071629E1,-3.430912841E0,-1.103878418E1,5.519441208E-1,1.157283723E1
1.089067129E1,-1.639931152E0,-5.751067547E0,-1.498126524E0,6.165106260E0
1.090062629E1,1.376024967E0,8.311115384E-2,-1.921445934E0,2.364805838E0
1.091058129E1,3.760353157E0,3.739986135E0,-8.808131638E-1,5.376205352E0
1.092053629E1,4.658997113E0,5.297728824E0,-7.820887747E-1,7.098158045E0
1.093049129E1,4.559072875E0,5.901142184E0,-4.160732478E-3,7.457120212E0
1.094044629E1,3.937457425E0,5.805246093E0,1.729854458E0,7.224738723E0
1.095040129E1,2.815522045E0,3.854803231E0,2.834198052E0,5.551517895E0
1.096035629E1,1.601499158E0,1.072682236E0,3.116931686E0,3.664793291E0
1.097031129E1,-5.855310026E-1,-9.937588584E-1,2.938218849E0,3.156506491E0
1.098026629E1,-2.505297434E0,-2.425544921E0,2.762443360E0,4.448693821E0
1.099022129E1,-3.157096210E0,-2.672599722E0,2.058543845E0,4.620351558E0
1.100017629E1,-2.912998346E0,-1.539468970E0,8.873664308E-1,3.412175736E0
1.101013129E1,-2.362964949E0,3.812530786E-1,-3.281399317E-1,2.415912472E0
1.102008629E1,-1.677703580E0,1.855738433E0,-1.018962697E0,2.701247751E0
1.103004129E1,-5.913725538E-1,2.361902656E0,-1.454969687E0,2.836413659E0
1.103999629E1,2.176898653E-1,2.144465756E0,-1.753833159E0,2.778858219E0
1.104995129E1,5.873524468E-1,1.565923528E0,-1.399764370E0,2.180926336E0
1.105990629E1,8.223923897E-1,1.129066937E0,-7.583797040E-1,1.589421645E0
1.106986129E1,4.525799733E-1,8.820782089E-1,9.170882665E-2,9.956410537E-1
1.107981629E1,2.560801251E-1,9.810815102E-1,6.204210826E-1,1.188705296E0
1.108977129E1,6.076806575E-2,1.144264435E0,9.209182658E-1,1.470076293E0
1.109972729E1,-2.888305262E-2,1.139044626E0,1.202509720E0,1.656588819E0
1.110968129E1,-1.004373309E-1,8.201982951E-1,1.102857816E0,1.378081370E0
1.111963729E1,-3.325672607E-1,1.234873474E-2,2.221256362E-1,4.001165735E-1
1.112959229E1,-6.106368636E-1,-9.530464500E-1,-9.620156403E-1,1.485479386E0
1.113954729E1,-1.006414426E0,-1.404598264E0,-2.258338088E0,2.843564172E0
1.114950229E1,-1.559753254E0,-1.313573488E0,-4.061409334E0,4.544595834E0
1.115945729E1,-1.993243310E0,-1.243705108E0,-6.021138743E0,6.463275722E0
1.116941229E1,-2.210555811E0,-1.220704501E0,-6.848915030E0,7.299610507E0
1.117936729E1,-2.201620827E0,-1.378790992E0,-5.820148306E0,6.373564558E0
1.118932229E1,-1.864516858E0,-1.512306899E0,-4.000352708E0,4.665438571E0
1.119927729E1,-1.875946556E0,-1.718313078E0,-2.480941442E0,3.553427325E0
1.120923229E1,-2.715045245E0,-2.382909363E0,-2.052986652E0,4.155054983E0
1.121918729E1,-3.842127053E0,-2.831367415E0,-2.197967340E0,5.254487811E0
1.122914229E1,-4.769651576E0,-3.018940830E0,-2.381361605E0,6.126537602E0
1.123909729E1,-5.000126013E0,-3.144615036E0,-2.803106067E0,6.538139452E0
1.124905229E1,-4.377030340E0,-3.544552308E0,-2.555292882E0,6.184801321E0
1.125900729E1,-3.520707362E0,-4.133170457E0,-1.940645851E0,5.765811711E0
1.126896229E1,-2.770279799E0,-4.624544733E0,-1.760704368E0,5.671061984E0
1.127891729E1,-2.400535064E0,-4.687403471E0,-1.735196767E0,5.544837934E0
1.128887229E1,-2.335277944E0,-4.345434911E0,-2.157850179E0,5.384481872E0
1.129882729E1,-3.311079419E0,-4.600206283E0,-2.929663203E0,6.380287708E0
1.130878229E1,-3.969392871E0,-4.856627739E0,-2.973645959E0,6.941576409E0
1.131873729E1,-3.264081838E0,-4.724299986E0,-3.269775272E0,6.607924859E0
1.132869229E1,-1.901768007E0,-4.129887831E0,-3.745976023E0,5.891097641E0
1.133864729E1,-1.143622411E0,-3.696769364E0,-3.957815968E0,5.535185922E0
1.134860229E1,3.473164237E-1,-2.327398236E0,-4.347389635E0,4.943400438E0
1.135855729E1,1.333309303E0,-1.482021246E0,-4.519067979E0,4.939238410E0
1.136851229E1,1.593226517E0,-1.511202360E0,-3.204062508E0,3.884342913E0
1.137846729E1,2.492421865E0,-1.635303665E0,-6.407396454E-1,3.049087097E0
1.138842229E1,3.329186491E0,-2.704945934E0,1.052563137E0,4.416797976E0
1.139837729E1,4.278075863E0,-3.996639726E0,2.554137472E0,6.387384474E0
1.140833229E1,4.518975593E0,-4.240811266E0,4.812307599E0,7.846268223E0
1.141828729E1,2.786514593E0,-4.959938099E0,5.628265493E0,8.002688422E0
1.142824229E1,1.835655001E0,-4.693616138E0,3.839107550E0,6.335488025E0
1.143819729E1,1.541766341E0,-3.986854995E0,3.205690666E-1,4.286586140E0
1.144815229E1,1.896296475E0,-3.717812324E0,-4.638995250E-1,4.199198920E0
1.145810729E1,2.406165640E0,-3.456898452E0,6.722193003E-2,4.212398222E0
1.146806229E1,1.880596262E0,-3.721703646E0,8.823790482E-1,4.262195809E0
1.147801729E1,6.026119986E-1,-3.446300374E0,1.754775291E0,3.913995888E0
1.148797229E1,-1.804548874E-1,-1.808145606E0,2.994798554E0,3.502966297E0
1.149792729E1,-5.722437532E-1,-4.872812247E-1,2.987498013E0,3.080592521E0
1.150788229E1,-7.420699192E-1,5.216663611E-1,2.833059891E0,2.974732241E0
1.151783729E1,2.173528099E-1,1.532717190E0,3.535316923E0,3.859395027E0
1.152779229E1,1.613149735E0,2.749124572E0,3.959991717E0,5.083450834E0
1.153774729E1,2.832365534E0,3.371350179E0,4.222080295E0,6.100349053E0
1.154770229E1,3.587060396E0,3.196925397E0,3.906965365E0,6.192875959E0
1.155765729E1,3.801930369E0,2.901745672E0,3.726275876E0,6.062997145E0
1.156761229E1,3.851393720E0,2.881086289E0,3.547011354E0,5.976217980E0
1.157756729E1,3.691651881E0,2.954444872E0,3.164299688E0,5.689449062E0
1.158752229E1,3.468390277E0,3.531929339E0,3.400048313E0,6.005379630E0
1.159747729E1,3.293888897E0,4.359514421E0,3.766849998E0,6.636582627E0
1.160743229E1,2.959973999E0,4.564638839E0,3.870942716E0,6.676943262E0
1.161738829E1,2.621076104E0,4.554848846E0,4.142132777E0,6.691334090E0
1.162734329E1,2.354914502E0,4.364626642E0,4.418284201E0,6.642049632E0
1.163729829E1,2.267329790E0,4.323738232E0,4.814382775E0,6.856659404E0
1.164725329E1,2.190867944E0,4.468160366E0,5.068087615E0,7.102807296E0
1.165720871E1,1.969221487E0,4.730921958E0,4.941794774E0,7.119044278E0
1.166716371E1,1.423571601E0,4.989423854E0,4.520953999E0,6.881855241E0
1.167711871E1,8.725560182E-1,5.238774272E0,3.998874532E0,6.648090508E0
1.168707371E1,3.812208093E-1,5.456340396E0,3.505350820E0,6.496496301E0
1.169702871E1,-1.949136995E-1,5.517253765E0,2.831926993E0,6.204666869E0
1.170698371E1,-8.857783270E-1,5.241062872E0,2.106229643E0,5.717477292E0
1.171693871E1,-1.363650066E0,5.093574459E0,9.014897954E-1,5.349460358E0
1.172689371E1,-1.801018142E0,4.726217873E0,-7.830602896E-1,5.118005974E0
1.173684871E1,-1.893320388E0,3.563913023E0,-2.575475424E0,4.787401361E0
1.174680371E1,-1.664068750E0,1.388480414E0,-4.494831563E0,4.990041427E0
1.175675871E1,-2.106807787E0,-2.280764937E0,-6.374724551E0,7.090672807E0
1.176671371E1,-2.665952315E0,-6.358868072E0,-7.845859451E0,1.044509528E1
1.177666871E1,-2.609019730E0,-9.567157533E0,-9.512807078E0,1.374157872E1
1.178662371E1,-2.764948892E0,-1.131713036E1,-1.065460457E1,1.578743109E1
1.179657871E1,-2.370606967E0,-1.021891450E1,-1.013596941E1,1.458711304E1
1.180653371E1,-2.074839305E0,-5.654363955E0,-8.301798431E0,1.025654167E1
1.181648871E1,-1.490808880E0,-7.402159864E-1,-5.982457073E0,6.209687871E0
1.182644371E1,-2.733975131E-1,2.765578637E0,-3.444262034E0,4.425619997E0
1.183639871E1,1.101095319E0,4.452262956E0,-8.111970913E-1,4.657584895E0
1.184635371E1,3.726858552E0,3.575689316E0,1.135521094E0,5.288141157E0
1.185630871E1,6.278980488E0,3.278820330E-1,2.439320376E0,6.744137194E0
1.186626371E1,7.268643372E0,-3.861968409E0,3.207927810E0,8.833955926E0
1.187621871E1,7.588924609E0,-8.340713405E0,4.359239894E0,1.208975803E1
1.188617371E1,7.697968749E0,-1.295286438E1,3.404067104E0,1.544742993E1
1.189612871E1,4.392402086E0,-1.395045316E1,-4.141325569E-1,1.463146764E1
1.190608371E1,-8.559019786E-1,-8.409524024E0,-3.846295825E0,9.286907670E0
1.191603871E1,-6.708003272E-1,-8.578426695E-1,-9.061283916E-1,1.416663611E0
1.192599371E1,2.283678897E0,5.738313600E0,3.978464533E0,7.346537437E0
1.193594871E1,4.704831682E0,1.161132249E1,8.074886702E0,1.490510135E1
1.194590371E1,8.180037181E0,1.406940892E1,1.169054758E1,2.003821795E1
1.195585871E1,7.946361979E0,1.232151010E1,1.045215292E1,1.800588183E1
1.196581371E1,3.302048686E0,4.841529644E0,8.747374974E0,1.052903147E1
1.197576871E1,-2.279108421E0,-3.875667266E0,5.758644369E0,7.305964476E0
1.198572371E1,-4.893641199E0,-1.028893257E1,3.378757724E0,1.188384876E1
1.199567871E1,-4.846303895E0,-1.163439093E1,2.835561622E0,1.291844121E1
1.200563371E1,-4.019258803E0,-8.063996848E0,1.678512689E0,9.165145462E0
1.201558871E1,-1.660350506E0,-3.095483807E0,6.156355020E-1,3.566201182E0
1.202554371E1,1.898967922E0,9.750056684E-1,-7.296038747E-2,2.135892890E0
1.203549871E1,4.292812893E0,3.817399762E0,1.936669452E-1,5.747894429E0
1.204545371E1,5.228367983E0,4.860486317E0,1.129929109E-1,7.139532645E0
1.205540871E1,4.923400018E0,4.597886692E0,1.873635006E-1,6.739104900E0
1.206536371E1,3.805789239E0,3.270557629E0,1.546889087E0,5.251042257E0
1.207531871E1,3.245870977E0,2.066190249E0,1.288508813E0,4.057718018E0
1.208527371E1,2.247747026E0,6.344322538E-1,1.797648100E0,2.947271563E0
1.209522871E1,1.140631633E0,-6.087290633E-1,2.416374732E0,2.740521564E0
1.210518371E1,-1.632853243E-2,-1.060579669E0,2.351685816E0,2.579829846E0
1.211513871E1,-8.582709049E-1,-9.425314021E-1,1.904997717E0,2.292162885E0
1.212509371E1,-1.588973106E0,-6.095915276E-1,1.659414659E0,2.376992716E0
1.213504871E1,-2.019995930E0,-2.757868499E-1,1.323495044E0,2.430654454E0
1.214500371E1,-2.007441227E0,2.830520153E-1,2.681930709E-1,2.044961185E0
1.215495871E1,-1.750714692E0,8.627350348E-1,-6.668831313E-1,2.062534069E0
1.216491371E1,-1.426183406E0,1.070166180E0,-9.337955888E-1,2.012766495E0
1.217486871E1,-3.922824256E-1,1.348595386E0,-1.020336208E0,1.735995678E0
1.218482471E1,-5.176206726E-1,1.621894246E0,-3.555370241E-1,1.739217836E0
1.219477971E1,-6.913923204E-1,1.457938319E0,9.346171957E-1,1.864702868E0
1.220473471E1,-2.361835852E-1,8.254210281E-1,1.221918967E0,1.493381573E0
1.221468971E1,3.485012888E-1,1.818758887E-1,5.379795080E-1,6.662986855E-1
1.222464471E1,9.232842685E-1,2.782456040E-2,-2.811219956E-1,9.655348896E-1
1.223459971E1,1.452463132E0,-1.834680855E-2,-1.391612328E0,2.011608965E0
1.224455471E1,1.429642181E0,-2.430079436E-1,-2.304931626E0,2.723167168E0
1.225450971E1,1.117558666E0,-6.327213585E-1,-3.075054512E0,3.332451642E0
1.226446471E1,6.524150732E-1,-7.485745811E-1,-3.655871599E0,3.788325023E0
1.227441971E1,2.603366788E-1,-5.861640733E-1,-4.103792877E0,4.153610415E0
1.228437471E1,-3.225245216E-1,-4.821193027E-1,-3.818859227E0,3.862660597E0
1.229432971E1,-8.327436425E-1,-5.838368815E-1,-3.562229025E0,3.704565171E0
1.230428471E1,-1.487869923E0,-9.011354542E-1,-3.912966363E0,4.282184929E0
1.231423971E1,-2.586881880E0,-1.230762296E0,-3.986183735E0,4.908807845E0
1.232419471E1,-3.457529074E0,-1.559790968E0,-3.616715135E0,5.241000242E0
1.233414971E1,-4.191564261E0,-1.662299675E0,-2.771089638E0,5.292578667E0
1.234410471E1,-4.380212395E0,-1.745376331E0,-1.663520282E0,4.999989889E0
1.235405971E1,-3.755553178E0,-2.230119864E0,-1.512121543E0,4.622134338E0
1.236401471E1,-2.986882886E0,-2.522784702E0,-2.113858798E0,4.444582212E0
1.237396971E1,-1.823481683E0,-2.615575921E0,-2.693576024E0,4.173927963E0
1.238392471E1,-7.486383158E-1,-2.713054268E0,-2.926793389E0,4.060448539E0
1.239387971E1,-5.801768169E-2,-3.153602791E0,-2.820651515E0,4.231388848E0
1.240383471E1,1.509096193E-1,-3.710155980E0,-2.696220719E0,4.588860128E0
1.241378971E1,-4.854884684E-1,-4.103928532E0,-2.956991042E0,5.081508090E0
1.242374471E1,-1.480716001E0,-4.170013763E0,-2.874832400E0,5.276949497E0
1.243369971E1,-2.081781119E0,-4.124477987E0,-2.423627619E0,5.217192935E0
1.244365471E1,-1.786871243E0,-4.189369801E0,-2.630224950E0,5.259449730E0
1.245360971E1,-1.259395965E0,-3.894881802E0,-2.802021409E0,4.960595370E0
1.246356471E1,-1.244606749E0,-3.417468923E0,-3.081731740E0,4.767096634E0
1.247351971E1,-1.406459871E0,-2.969896140E0,-3.871264605E0,5.077903316E0
1.248347471E1,-8.248531173E-1,-2.538193284E0,-4.290652347E0,5.052969956E0
1.249342971E1,8.205321711E-1,-1.488925638E0,-3.984275789E0,4.331815573E0
1.250338471E1,1.075663732E0,-8.045306808E-1,-3.856682526E0,4.083910159E0
1.251333971E1,1.072774915E0,-1.257273572E0,-3.096629861E0,3.510085376E0
1.252329471E1,2.356750382E0,-2.461780701E0,-1.278187893E0,3.639835281E0
1.253324971E1,3.768620243E0,-3.726534031E0,3.429362744E-1,5.311041302E0
1.254320471E1,5.214499556E0,-4.089705765E0,2.136917585E0,6.962981806E0
1.255315971E1,5.450100247E0,-4.079430453E0,3.618321365E0,7.709578135E0
1.256311471E1,4.512338419E0,-4.074984815E0,4.092653346E0,7.329154839E0
1.257306971E1,4.009738074E0,-3.309249240E0,2.664997172E0,5.842203342E0
1.258302471E1,3.098659137E0,-3.388496554E0,1.690973836E0,4.893157453E0
1.259297971E1,2.540357046E0,-3.524589329E0,7.638793027E-1,4.411309947E0
1.260293471E1,2.109488881E0,-3.431080071E0,-2.926554823E-1,4.038304227E0
1.261288971E1,1.723687254E0,-3.147823403E0,-5.704543591E-3,3.588860887E0
1.262284471E1,7.776580471E-1,-2.595469685E0,1.513921169E0,3.103735207E0
1.263279971E1,8.915057844E-2,-1.501831028E0,2.678169487E0,3.071813156E0
1.264275471E1,-1.646992542E-1,-6.423283339E-2,3.150553761E0,3.155509579E0
1.265270971E1,2.426542054E-1,1.340047342E0,3.509234248E0,3.764217442E0
1.266266492E1,7.053822955E-1,2.065629501E0,4.029537331E0,4.582745959E0
1.267261992E1,1.516442927E0,2.611387560E0,3.722961382E0,4.793681841E0
1.268257492E1,2.931039053E0,3.150212576E0,3.666812032E0,5.653347652E0
1.269252992E1,3.778176640E0,3.437881553E0,3.939116865E0,6.450603845E0
1.270248492E1,4.102684537E0,3.800919970E0,3.849023259E0,6.789255708E0
1.271243992E1,4.101438203E0,4.082418965E0,3.460633946E0,6.742694361E0
1.272239492E1,3.707125660E0,4.062457155E0,3.310903125E0,6.419378342E0
1.273234992E1,3.087213505E0,4.325543852E0,3.617991875E0,6.428925419E0
1.274230492E1,2.418870032E0,4.210291139E0,3.835415034E0,6.187721082E0
1.275225992E1,1.797660525E0,3.918890469E0,4.089956610E0,5.942813386E0
1.276221492E1,1.296894452E0,3.869904835E0,4.178383468E0,5.840974838E0
1.277216992E1,1.136286202E0,4.092268599E0,4.369100347E0,6.093180324E0
1.278212492E1,1.045448976E0,4.493514478E0,4.530592842E0,6.466135431E0
1.279207992E1,9.483142253E-1,4.693177596E0,4.371897655E0,6.483726160E0
1.280203492E1,8.629843455E-1,4.745689686E0,3.942962871E0,6.230029597E0
1.281198992E1,5.095979638E-1,4.730581650E0,3.444201223E0,5.873722406E0
1.282194492E1,5.291401260E-2,4.784250319E0,2.957888297E0,5.625029261E0
1.283189992E1,-4.834468400E-1,4.945621777E0,2.512875425E0,5.568432320E0
1.284185492E1,-1.087397486E0,4.822484677E0,2.072561960E0,5.360438866E0
1.285180992E1,-1.445942610E0,4.639100792E0,1.343329676E0,5.041482005E0
1.286176492E1,-1.536117054E0,4.722160490E0,-6.411004186E-2,4.966141902E0
1.287172092E1,-2.068726625E0,4.523549286E0,-1.604996377E0,5.226675938E0
1.288167492E1,-2.633120199E0,3.494070956E0,-3.292902472E0,5.475861623E0
1.289163092E1,-2.626786788E0,1.212387421E0,-5.340486588E0,6.073770582E0
1.290158592E1,-2.622601351E0,-2.453608632E0,-7.337900133E0,8.169639620E0
1.291154092E1,-3.480760354E0,-6.521419498E0,-8.501429390E0,1.126582916E1
1.292149592E1,-4.287355102E0,-9.622567502E0,-9.688013048E0,1.431198155E1
1.293145092E1,-4.388358151E0,-1.073707136E1,-1.115554489E1,1.609312184E1
1.294140592E1,-4.271915822E0,-9.089420718E0,-1.062586902E1,1.462107815E1
1.295136092E1,-3.517802173E0,-5.067121071E0,-8.641370217E0,1.061715250E1
1.296131592E1,-2.660448623E0,8.364149630E-2,-6.678987926E0,7.189844400E0
1.297127092E1,-1.667039282E0,4.216607301E0,-4.798717500E0,6.602006267E0
1.298122592E1,5.847984927E-2,6.133236884E0,-1.839571174E0,6.403439441E0
1.299118092E1,2.800811912E0,5.813845008E0,9.758368501E-1,6.526683591E0
1.300113592E1,5.480624467E0,3.031496556E0,3.009199369E0,6.948560769E0
1.301109092E1,6.786155695E0,-9.757921189E-1,4.580811653E0,8.245478444E0
1.302104592E1,6.827698992E0,-4.616225315E0,5.376396679E0,9.840358273E0
1.303100092E1,7.854854223E0,-7.998660645E0,4.250760596E0,1.198942336E1
1.304095592E1,8.360937755E0,-1.154969751E1,1.870067620E0,1.438047098E1
1.305091092E1,5.983896073E0,-1.411902839E1,-2.944340299E0,1.561483637E1
1.306086592E1,1.072137641E0,-1.055793840E1,-9.304104749E0,1.411332376E1
1.307082092E1,-6.013984821E-1,-2.590000200E0,-6.060772340E0,6.618364037E0
1.308077592E1,1.532508445E0,5.553665546E0,3.669967774E0,6.830845233E0
1.309073092E1,3.497934504E0,1.254059592E1,9.762607148E0,1.627300188E1
1.310068592E1,6.388953166E0,1.522641151E1,1.314640722E1,2.110664239E1
1.311064092E1,7.330384122E0,1.264544585E1,1.036211515E1,1.791689880E1
1.312059592E1,4.051340429E0,5.125145330E0,7.605845282E0,1.002643288E1
1.313055092E1,-4.067871092E0,-4.289770002E0,5.524806029E0,8.091550133E0
1.314050592E1,-7.457616611E0,-1.215902767E1,2.972454004E0,1.457029451E1
1.315046092E1,-6.603935990E0,-1.246052181E1,2.100803866E0,1.425797851E1
1.316041592E1,-5.168197795E0,-7.404695216E0,9.424167967E-1,9.078982824E0
1.317037092E1,-1.822857785E0,-2.072666625E0,-7.013840425E-1,2.847928549E0
1.318032592E1,2.167858858E0,1.884113216E0,-1.298002060E0,3.151873092E0
1.319028092E1,4.987439309E0,4.398055758E0,-6.786888058E-1,6.684165154E0
1.320023592E1,6.085669200E0,5.320900170E0,-1.986017029E-1,8.086209920E0
1.321019092E1,5.550940744E0,4.938026828E0,4.158084420E-1,7.441098626E0
1.322014592E1,4.372242640E0,3.671295385E0,1.699054688E0,5.956651941E0
1.323010092E1,3.496187648E0,2.112884359E0,1.819945872E0,4.472114865E0
1.324005592E1,2.340794792E0,6.482544869E-1,1.974311196E0,3.130089270E0
1.325001092E1,6.404632913E-1,-6.759369600E-1,2.332352582E0,2.511364683E0
1.325996592E1,-5.691131540E-1,-1.363204070E0,2.333004547E0,2.761362948E0
1.326992092E1,-1.229628521E0,-1.383945313E0,1.978500726E0,2.709567503E0
1.327987592E1,-1.744287871E0,-8.059708500E-1,1.411778644E0,2.384375837E0
1.328983092E1,-1.999190513E0,1.226155275E-1,3.896035603E-1,2.040487248E0
1.329978592E1,-1.949648517E0,1.106106675E0,-5.881573892E-1,2.317440491E0
1.330974092E1,-1.549754515E0,1.757615722E0,-7.814879733E-1,2.470156986E0
1.331969592E1,-5.871565651E-1,1.727931747E0,-1.141254727E0,2.152431952E0
1.332965092E1,3.033750366E-1,1.367415819E0,-1.215101187E0,1.854274341E0
1.333960592E1,9.522848502E-2,1.094812778E0,-1.826455285E-1,1.114021038E0
1.334956092E1,8.159475155E-2,9.358907193E-1,-1.269822282E-1,9.479839810E-1
1.335951592E1,3.749885179E-1,9.756494468E-1,-8.056393129E-1,1.319682892E0
1.336947092E1,2.415002391E-1,7.167926252E-1,-1.191573672E0,1.411368786E0
1.337942592E1,2.201343669E-1,3.433531809E-1,-1.180397450E0,1.248874969E0
1.338938092E1,2.971497253E-1,3.808350027E-2,-1.318050409E0,1.351667560E0
1.339933592E1,3.122188041E-1,-5.259868687E-1,-1.668378441E0,1.776971972E0
1.340929092E1,2.105611593E-2,-1.098721057E0,-2.203513863E0,2.462337237E0
1.341924592E1,-5.183736478E-1,-1.297810564E0,-3.214555922E0,3.505195183E0
1.342920092E1,-1.131031748E0,-1.072215629E0,-4.294591032E0,4.568631228E0
1.343915592E1,-1.687548537E0,-7.116763115E-1,-4.680256712E0,5.025843822E0
1.344911092E1,-1.630774851E0,-7.182591069E-1,-4.770392710E0,5.092344192E0
1.345906592E1,-1.527917211E0,-9.730942136E-1,-4.637983389E0,4.979190021E0
1.346902092E1,-1.960792433E0,-9.886782128E-1,-4.046792757E0,4.604207118E0
1.347897592E1,-2.871655608E0,-1.085012260E0,-3.011877394E0,4.300588677E0
1.348893092E1,-4.072393036E0,-1.503513272E0,-1.755348172E0,4.682540379E0
1.349888592E1,-4.978543355E0,-2.233586678E0,-9.885019192E-1,5.545443123E0
1.350884092E1,-5.190983809E0,-2.827533980E0,-1.032350189E0,6.000583991E0
1.351879592E1,-4.599460178E0,-3.014387019E0,-1.882490614E0,5.812515285E0
1.352875092E1,-2.768018680E0,-2.957915195E0,-2.734805618E0,4.887775719E0
1.353870592E1,-8.681612509E-1,-2.919039981E0,-3.036666080E0,4.300678929E0
1.354866092E1,2.157296593E-1,-3.275762821E0,-3.257872387E0,4.625029063E0
1.355861592E1,6.214450032E-2,-3.798843623E0,-3.624457726E0,5.250882651E0
1.356857092E1,-1.117237581E0,-3.949819901E0,-3.402262946E0,5.331481053E0
1.357852592E1,-2.191511430E0,-3.796180801E0,-3.011802842E0,5.318333139E0
1.358848092E1,-3.174037641E0,-3.983097575E0,-2.900368652E0,5.861034000E0
1.359843592E1,-3.237881634E0,-4.176594805E0,-2.764230269E0,5.963957631E0
1.360839092E1,-2.818048042E0,-3.969689324E0,-3.061705904E0,5.750988710E0
1.361834592E1,-2.191589198E0,-4.149815142E0,-3.508551878E0,5.859519195E0
1.362830092E1,-4.137054178E-1,-3.626582896E0,-4.114132508E0,5.499940179E0
1.363825592E1,1.676585008E0,-2.196246943E0,-4.221012009E0,5.044936105E0
1.364821092E1,3.178579173E0,-1.841002280E0,-4.056881835E0,5.472745671E0
1.365816546E1,4.529655533E0,-2.210260965E0,-2.931227918E0,5.830534271E0
1.366812046E1,5.382111163E0,-2.876963418E0,-1.071252592E0,6.196097255E0
1.367807546E1,6.555284232E0,-4.346043606E0,7.186157870E-1,7.897863954E0
1.368803046E1,6.303982598E0,-5.696511855E0,3.145876865E0,9.060186817E0
1.369798546E1,4.309158200E0,-5.371899000E0,5.188443779E0,8.622417997E0
1.370794046E1,2.583558907E0,-4.829869126E0,4.157520018E0,6.876582370E0
1.371789546E1,1.490551164E0,-4.670831292E0,1.756200696E0,5.207940919E0
1.372785046E1,1.566425950E0,-4.222053398E0,9.872100500E-1,4.610207027E0
1.373780546E1,1.242607732E0,-3.926492434E0,3.626093777E-1,4.134356343E0
1.374776046E1,7.513485003E-1,-4.004782559E0,3.990008399E-2,4.074849682E0
1.375771546E1,-8.679676350E-2,-3.182600888E0,5.923394640E-1,3.238417535E0
1.376767046E1,-2.438006068E-1,-1.967714952E0,2.474358062E0,3.170770992E0
1.377762546E1,6.047559533E-2,-7.882765907E-1,3.153702779E0,3.251288744E0
1.378758146E1,4.906156360E-1,4.274723947E-1,3.544804030E0,3.604035511E0
1.379753546E1,1.214454266E0,1.571762558E0,3.638243121E0,4.145135668E0
1.380749146E1,1.965602937E0,2.292648234E0,4.059844327E0,5.059858376E0
1.381744646E1,2.789566547E0,2.725386631E0,4.346097693E0,5.839347477E0
1.382740146E1,3.781255783E0,3.174594296E0,4.204381650E0,6.484810661E0
1.383735646E1,4.534394701E0,3.290745142E0,4.081183155E0,6.931507400E0
1.384731146E1,4.461028809E0,3.586220736E0,3.696166809E0,6.813472410E0
1.385726646E1,3.994865096E0,3.811782342E0,3.357838725E0,6.462485022E0
1.386722146E1,3.495034870E0,3.965493947E0,3.468665974E0,6.322345658E0
1.387717646E1,2.889833139E0,4.280314470E0,3.895347825E0,6.468845508E0
1.388713146E1,2.210440182E0,4.137613757E0,4.050843415E0,6.198001757E0
1.389708646E1,1.634973736E0,3.836391519E0,4.228376577E0,5.938872576E0
1.390704146E1,1.334417642E0,3.717076160E0,4.394383999E0,5.908293862E0
1.391699646E1,1.328103527E0,3.995462097E0,4.590462775E0,6.228958567E0
1.392695146E1,1.417972746E0,4.407277402E0,4.638414913E0,6.553597006E0
1.393690646E1,1.440059872E0,4.822089990E0,4.393665961E0,6.680615607E0
1.394686146E1,1.171565743E0,5.187280768E0,4.047052665E0,6.682745194E0
1.395681646E1,6.225851371E-1,5.467698612E0,3.660765426E0,6.609428408E0
1.396677146E1,4.169713436E-3,5.727374044E0,3.201110249E0,6.561245130E0
1.397672646E1,-8.239103269E-1,5.857081075E0,2.716583063E0,6.508767201E0
1.398668146E1,-1.639943431E0,5.507237484E0,1.989225104E0,6.080797290E0
1.399663646E1,-2.134493914E0,4.900994657E0,1.030495745E0,5.444054958E0
1.400659146E1,-2.494418104E0,4.223571920E0,2.322572529E-2,4.905223835E0
1.401654646E1,-2.356201328E0,3.254075498E0,-1.455422262E0,4.273048795E0
1.402650146E1,-1.366496929E0,1.789403526E0,-3.361347347E0,4.045730444E0
1.403645646E1,-5.051605484E-1,-8.220080084E-1,-5.314193999E0,5.401068616E0
1.404641146E1,-3.436530700E-1,-4.321508104E0,-6.598896859E0,7.895503118E0
1.405636646E1,-9.893614599E-1,-7.870652230E0,-7.683172370E0,1.104342068E1
1.406632146E1,-1.492382658E0,-1.056526146E1,-9.698942664E0,1.441948142E1
1.407627646E1,-1.806198337E0,-1.081146315E1,-1.165805928E1,1.600188846E1
1.408623146E1,-2.291819099E0,-7.056417511E0,-1.087200873E1,1.316229603E1
1.409618646E1,-2.017414969E0,-1.493564819E0,-7.265152584E0,7.686555867E0
1.410614146E1,-1.208803516E0,3.566504509E0,-3.518952321E0,5.154045575E0
1.411609646E1,-1.508520791E-1,6.775735956E0,-6.479463387E-1,6.808317601E0
1.412605146E1,1.619142838E0,6.519374142E0,1.259586438E0,6.834502230E0
1.413600646E1,3.723013130E0,3.078485366E0,2.711491600E0,5.539863321E0
1.414596146E1,4.653716492E0,-9.113172108E-1,3.527393069E0,5.910167350E0
1.415591646E1,4.872110874E0,-4.496440424E0,3.658701359E0,7.572419461E0
1.416587146E1,5.952192469E0,-8.082150114E0,2.477586894E0,1.033867412E1
1.417582646E1,7.097470812E0,-1.203693079E1,8.447501689E-2,1.397386600E1
1.418578146E1,4.871069192E0,-1.492768428E1,-5.382216997E0,1.659913651E1
1.419573646E1,-3.034264555E-1,-1.241628645E1,-1.060796016E1,1.633355612E1
1.420569146E1,-1.169180298E0,-2.802438315E0,-4.376384515E0,5.326667298E0
1.421564646E1,2.231506531E0,7.193408418E0,7.144863664E0,1.038141719E1
1.422560146E1,6.242222552E0,1.409519514E1,1.246202688E1,1.982276425E1
1.423555646E1,9.846050423E0,1.540660516E1,1.126856105E1,2.147763161E1
1.424551146E1,6.952247025E0,1.122850528E1,8.115068768E0,1.550056162E1
1.425546646E1,-1.108918163E0,2.877801908E0,8.760842282E0,9.287830791E0
1.426542146E1,-6.085565704E0,-8.073744741E0,5.321110085E0,1.142513355E1
1.427537646E1,-6.079815552E0,-1.327587861E1,4.344383874E0,1.523439468E1
1.428533146E1,-4.948552986E0,-1.055000022E1,2.804156519E0,1.198557363E1
1.429528646E1,-2.232242111E0,-5.669956141E0,-7.515426278E-2,6.094009816E0
1.430524146E1,1.080279670E0,-6.488818932E-1,-2.095662994E0,2.445374258E0
1.431519646E1,4.148391345E0,2.614597097E0,-2.139577922E0,5.350052562E0
1.432515146E1,5.440050053E0,3.996928579E0,-9.677212071E-1,6.819535686E0
1.433510646E1,5.124227318E0,4.048882844E0,9.523056809E-1,6.599851816E0
1.434506146E1,5.085098920E0,4.295176338E0,1.506744443E0,6.824738062E0
1.435501646E1,4.423385604E0,3.757679810E0,2.730965459E0,6.414411126E0
1.436497146E1,3.291377518E0,2.342149007E0,2.862465831E0,4.951013893E0
1.437492646E1,1.640064468E0,3.636482817E-1,2.669724061E0,3.154279331E0
1.438488146E1,-2.488872093E-1,-1.094416922E0,2.872866858E0,3.084324436E0
1.439483646E1,-1.145251445E0,-1.353906997E0,2.015694864E0,2.684714289E0
1.440479146E1,-1.858171606E0,-1.163384830E0,1.229573557E0,2.513586504E0
1.441474646E1,-1.956991304E0,-2.480891740E-1,-2.825877464E-1,1.992791770E0
1.442470146E1,-2.078530213E0,9.604344070E-1,-1.160434252E0,2.566968981E0
1.443465646E1,-1.775075216E0,1.472843456E0,-1.125024172E0,2.566289005E0
1.444461146E1,-1.025510263E0,1.376125247E0,-6.292924782E-1,1.827949949E0
1.445456646E1,-9.309023134E-3,1.330319914E0,-3.542699325E-1,1.376715263E0
1.446452146E1,3.262423275E-1,1.001338604E0,-4.612015466E-1,1.149704276E0
1.447447646E1,2.354615271E-1,8.312483633E-1,-1.070473231E0,1.375619465E0
1.448443146E1,1.778528582E-1,9.335834080E-1,-1.490958861E0,1.768097267E0
1.449438646E1,2.155141164E-1,8.437362617E-1,-1.470457354E0,1.708971048E0
1.450434146E1,1.114404751E-1,5.104514015E-1,-1.263212150E0,1.366998372E0
1.451429646E1,-2.352926888E-2,-1.383123779E-1,-1.065664262E0,1.074860112E0
1.452425146E1,-2.933331015E-1,-8.723192060E-1,-1.154881809E0,1.476731898E0
1.453420646E1,-7.270039102E-1,-1.096424271E0,-1.850758359E0,2.270679936E0
1.454416146E1,-1.294187922E0,-6.063083160E-1,-3.124994704E0,3.436295105E0
1.455411646E1,-1.841319784E0,2.701589048E-2,-4.154442628E0,4.544291139E0
1.456407146E1,-1.884796756E0,4.653974354E-1,-4.544866772E0,4.942152118E0
1.457402646E1,-1.522994294E0,4.975237924E-1,-4.131335601E0,4.431137032E0
1.458398146E1,-1.291396461E0,2.327162594E-1,-3.350057251E0,3.597880662E0
1.459393646E1,-2.131680380E0,-9.238191426E-2,-2.356059241E0,3.178617751E0
1.460389146E1,-3.668964100E0,-8.037740511E-1,-1.266785823E0,3.963848712E0
1.461384646E1,-5.007167814E0,-1.788592517E0,-4.373460031E-1,5.334984933E0
1.462380146E1,-5.469655091E0,-2.415871872E0,-2.868714166E-1,5.986305949E0
1.463375646E1,-5.078409705E0,-2.405040489E0,-1.237453996E0,5.753760273E0
1.464371146E1,-3.637928833E0,-2.164954399E0,-2.312964385E0,4.824039593E0
1.465366646E1,-1.606608455E0,-2.043726416E0,-2.786574819E0,3.810906403E0
1.466362179E1,-1.559791553E-1,-2.119771795E0,-2.949575019E0,3.635623021E0
1.467357679E1,6.290610015E-2,-2.574501570E0,-3.350696059E0,4.226012256E0
1.468353179E1,-6.647123525E-1,-2.988475083E0,-3.809322126E0,4.887101482E0
1.469348679E1,-1.456131091E0,-3.306567122E0,-3.772657453E0,5.223662331E0
1.470344179E1,-1.960005690E0,-3.475585569E0,-3.331724183E0,5.198240412E0
1.471339679E1,-2.151468089E0,-3.484560460E0,-3.070251317E0,5.118341498E0
1.472335179E1,-2.145190518E0,-3.508049310E0,-3.323002768E0,5.286832674E0
1.473330679E1,-2.219828618E0,-3.345537645E0,-3.851642811E0,5.563758943E0
1.474326179E1,-2.056146195E0,-3.125719174E0,-3.815271376E0,5.343608631E0
1.475321679E1,-1.152324091E0,-2.656811070E0,-4.715168974E0,5.533472177E0
1.476317179E1,-5.205551708E-1,-2.522832649E0,-4.984585868E0,5.610860766E0
1.477312679E1,1.388079295E0,-3.243753993E0,-4.004050487E0,5.336770971E0
1.478308179E1,3.811686448E0,-2.964124353E0,-3.192152315E0,5.788335094E0
1.479303679E1,5.247890081E0,-2.793596740E0,-1.994951867E0,6.270914288E0
1.480299179E1,7.137763390E0,-3.916784302E0,4.676848296E-1,8.155218855E0
1.481294679E1,7.291837522E0,-5.830068693E0,4.749596211E0,1.047469616E1
1.482290179E1,5.778323758E0,-6.331616539E0,6.989284458E0,1.106022110E1
1.483285679E1,4.388030123E0,-5.424995812E0,4.259473239E0,8.174870041E0
1.484281179E1,2.548056368E0,-4.461462380E0,2.467654375E-1,5.143746787E0
1.485276679E1,2.227541534E0,-4.709190781E0,-8.124181361E-1,5.272422814E0
1.486272179E1,1.968056721E0,-5.011091296E0,3.625951982E-1,5.395902011E0
1.487267679E1,2.043516355E-1,-4.821331607E0,5.217868137E-1,4.853788163E0
1.488263179E1,-4.486599268E-1,-3.664393331E0,6.965086341E-1,3.756886809E0
1.489258679E1,-3.714599791E-1,-1.953716133E0,1.786943894E0,2.673603883E0
1.490254179E1,-2.518224020E-2,-5.400950307E-1,3.290970844E0,3.335090086E0
1.491249679E1,8.211828931E-1,7.101659757E-1,4.379413081E0,4.511976949E0
1.492245179E1,1.561880909E0,1.955958540E0,4.228180988E0,4.913528289E0
1.493240679E1,2.160350302E0,2.724879677E0,4.180647217E0,5.437820688E0
1.494236179E1,2.888293275E0,2.829705636E0,3.934953648E0,5.642103529E0
1.495231679E1,3.392093761E0,2.916757813E0,3.509737401E0,5.686126348E0
1.496227179E1,4.085822921E0,3.293213251E0,3.561927309E0,6.342438696E0
1.497222679E1,3.918180325E0,3.732442058E0,3.511879528E0,6.451089721E0
1.498218179E1,3.503531751E0,4.359653585E0,3.221198943E0,6.454257257E0
1.499213679E1,3.112407403E0,4.858798226E0,3.075578130E0,6.538668127E0
1.500209179E1,2.611120635E0,5.265877871E0,3.438348160E0,6.809527061E0
1.501204679E1,1.821730004E0,5.195893716E0,3.873947015E0,6.732271325E0
1.502200179E1,1.064114019E0,4.967219637E0,4.201583465E0,6.592337460E0
1.503195679E1,8.789625201E-1,4.958375723E0,4.434834745E0,6.710128474E0
1.504191179E1,1.001211573E0,5.177344594E0,4.628969029E0,7.016742544E0
1.505186679E1,1.084288302E0,5.300239034E0,4.652290356E0,7.135265972E0
1.506182179E1,1.016923334E0,5.420903930E0,4.456001958E0,7.090577264E0
1.507177679E1,8.977662885E-1,5.506989563E0,4.048501605E0,6.893713339E0
1.508173179E1,5.905266444E-1,5.752897725E0,3.586114609E0,6.804760976E0
1.509168679E1,8.143789086E-2,5.885376336E0,3.169807473E0,6.685205020E0
1.510164179E1,-3.646735910E-1,5.777794585E0,2.619604653E0,6.354386330E0
1.511159679E1,-6.058654260E-1,5.635647603E0,1.703521669E0,5.918579466E0
1.512155179E1,-9.628242371E-1,5.371670374E0,4.940204331E-1,5.479592075E0
1.513150679E1,-1.669881468E0,4.491300722E0,-8.599991226E-1,4.868252744E0
1.514146179E1,-2.171251997E0,2.682225409E0,-2.785938642E0,4.435101182E0
1.515141679E1,-2.608579143E0,-7.338811129E-1,-5.602800869E0,6.223716270E0
1.516137179E1,-3.667200580E0,-5.771487778E0,-7.965254917E0,1.049779582E1
1.517132679E1,-4.883795950E0,-1.137437343E1,-9.236157764E0,1.544456034E1
1.518128179E1,-5.662542456E0,-1.480535118E1,-1.091074185E1,1.924336505E1
1.519123679E1,-5.697225215E0,-1.426363939E1,-1.177696358E1,1.935475794E1
1.520119179E1,-4.416155815E0,-9.845345249E0,-9.678960389E0,1.449536234E1
1.521114679E1,-2.930197931E0,-3.378687850E0,-6.738445923E0,8.087536396E0
1.522110179E1,-1.668201562E0,2.661904580E0,-5.530355036E0,6.360303395E0
1.523105679E1,-7.767186919E-1,6.893421696E0,-3.445442295E0,7.745555320E0
1.524101279E1,9.697129150E-1,7.863696967E0,-2.139417270E-1,7.926149393E0
1.525096679E1,3.598923227E0,6.126729518E0,1.723891321E0,7.311693666E0
1.526092179E1,5.688747337E0,3.295737494E0,2.979461892E0,7.218097053E0
1.527087679E1,7.333282002E0,-6.665375608E-1,3.173809307E0,8.018376566E0
1.528083179E1,8.035512722E0,-5.647339110E0,2.318114904E0,1.009136068E1
1.529078779E1,7.111738018E0,-1.036101821E1,-2.913629553E-1,1.257029866E1
1.530074179E1,4.212878532E0,-1.397925772E1,-3.011095036E0,1.490753787E1
1.531069779E1,8.632093902E-1,-1.349552341E1,-4.500000502E0,1.425216781E1
1.532065279E1,1.477602797E0,-7.268499531E0,-4.200930039E0,8.524213081E0
1.533060679E1,5.594789599E0,2.316347584E0,3.804099978E0,7.151105748E0
1.534056279E1,9.057299039E0,1.185617231E1,1.229329612E1,1.933206189E1
1.535051779E1,1.235539705E1,1.537101900E1,1.011553339E1,2.216411689E1
1.536047279E1,8.662386864E0,1.264713569E1,5.772119862E0,1.637999863E1
1.537042779E1,-1.001807039E0,5.040515070E0,9.762182640E0,1.103225360E1
1.538038279E1,-9.276500044E0,-5.183154972E0,9.298242331E0,1.412005166E1
1.539033779E1,-1.045671375E1,-1.284802146E1,4.178654194E0,1.708436914E1
1.540029279E1,-7.428195761E0,-1.278163569E1,2.529435325E0,1.499821143E1
1.541024779E1,-4.279887038E0,-7.567782247E0,8.449855193E-1,8.735145204E0
1.542020279E1,-6.869884168E-1,-2.062181398E0,-2.027905459E0,2.972700078E0
1.543015779E1,2.503517834E0,1.482007213E0,-3.019806218E0,4.193229843E0
1.544011279E1,4.347960908E0,3.294473911E0,-1.403913116E0,5.632876214E0
1.545006779E1,5.033439939E0,4.113253672E0,9.287575547E-1,6.566350888E0
1.546002279E1,5.289786551E0,4.348677192E0,2.160504084E0,7.180571911E0
1.546997779E1,5.527920256E0,4.226032428E0,1.522802067E0,7.122933284E0
1.547993279E1,4.351036836E0,2.720955026E0,1.970708288E0,5.497163719E0
1.548988779E1,2.218834591E0,6.069152570E-1,2.041126159E0,3.075348610E0
1.549984279E1,9.694246838E-2,-8.045745349E-1,2.155576050E0,2.302877794E0
1.550979779E1,-1.234862072E0,-1.412655727E0,2.197851419E0,2.889815115E0
1.551975279E1,-1.942342567E0,-1.387272379E0,2.008741940E0,3.119657591E0
1.552970779E1,-2.248711378E0,-9.827853888E-1,1.121920470E0,2.698383873E0
1.553966279E1,-1.983510766E0,-2.153862816E-1,-3.128412402E-1,2.019548428E0
1.554961779E1,-8.510690356E-1,1.111394312E0,-1.778864504E0,2.263597744E0
1.555957279E1,-1.599764946E-1,1.763222033E0,-1.924202312E0,2.614784686E0
1.556952779E1,4.774876867E-1,1.991736483E0,-1.499330758E0,2.538306804E0
1.557948279E1,3.640423840E-1,1.788050480E0,-1.006009945E0,2.083676411E0
1.558943779E1,-4.622604042E-2,9.963678861E-1,-5.863676295E-1,1.157027575E0
1.559939279E1,-6.930639663E-1,5.780393672E-1,-3.114817625E-1,9.547188381E-1
1.560934779E1,-1.336473377E0,6.317244083E-1,-1.690412503E-1,1.487888356E0
1.561930279E1,-1.604710302E0,7.879228342E-1,-2.369549060E-1,1.803348323E0
1.562925779E1,-1.350758564E0,8.465949655E-1,-4.363649864E-1,1.652781333E0
1.563921279E1,-9.244485953E-1,8.153386742E-1,-5.301759602E-1,1.341815527E0
1.564916779E1,-4.409774163E-1,5.944519168E-1,-6.662814528E-1,9.958740570E-1
1.565912279E1,-1.067140245E-1,1.845287704E-1,-1.195395997E0,1.214252997E0
1.566907779E1,-2.035149720E-1,-3.452576190E-1,-1.807644353E0,1.851539704E0
1.567903279E1,-7.423173295E-1,-5.911616886E-1,-2.401676002E0,2.582354502E0
1.568898779E1,-1.419930101E0,-1.943491691E-1,-3.457236421E0,3.742520109E0
1.569894279E1,-2.044120226E0,3.019736052E-1,-4.615700819E0,5.057104865E0
1.570889779E1,-2.260462528E0,4.291300803E-1,-4.753066533E0,5.280670879E0
1.571885279E1,-1.939699041E0,5.223715353E-1,-3.508741620E0,4.043089431E0
1.572880779E1,-2.200996344E0,4.933944887E-1,-2.086476579E0,3.072654804E0
1.573876279E1,-3.282252061E0,-3.287889361E-3,-1.299393990E0,3.530101152E0
1.574871779E1,-4.729296432E0,-1.426924102E0,-7.824498403E-1,5.001458276E0
1.575867279E1,-5.823927362E0,-2.446114841E0,-5.809208751E-1,6.343427843E0
1.576862779E1,-6.028004544E0,-2.509217407E0,-1.321585928E0,6.661801569E0
1.577858279E1,-5.138874593E0,-2.269993781E0,-2.130823032E0,6.008436622E0
1.578853779E1,-3.292438495E0,-2.116814858E0,-2.573184192E0,4.684264432E0
1.579849279E1,-1.655563829E0,-2.112716544E0,-3.219431330E0,4.191563059E0
1.580844779E1,-1.152721994E0,-2.521302432E0,-3.842893915E0,4.738519557E0
1.581840279E1,-1.216932462E0,-2.994780135E0,-4.306597120E0,5.384831606E0
1.582835779E1,-1.441865200E0,-3.197681442E0,-4.396793637E0,5.624583197E0
1.583831279E1,-1.963676718E0,-3.522552159E0,-4.059513959E0,5.722242004E0
1.584826779E1,-2.378436243E0,-3.823403683E0,-3.806772740E0,5.896345765E0
1.585822279E1,-2.749909269E0,-4.009584292E0,-4.047552895E0,6.326250992E0
1.586817779E1,-2.830578040E0,-3.817858769E0,-4.753175291E0,6.721673376E0
1.587813279E1,-2.652233870E0,-3.099847584E0,-4.027976124E0,5.733061242E0
1.588808779E1,-1.833409086E0,-3.069198233E0,-2.073643549E0,4.132960711E0
1.589804279E1,-9.488867408E-1,-3.809932283E0,-4.599426410E-1,3.953165476E0
1.590799779E1,8.708803524E-1,-4.724780043E0,-2.190220803E0,5.280061193E0
1.591795279E1,2.919246973E0,-4.549928999E0,-2.571765658E0,5.986471029E0
1.592790779E1,3.991332209E0,-4.189700754E0,-1.486689663E-1,5.788473691E0
1.593786279E1,5.192321067E0,-5.201201234E0,2.405234617E0,7.732906692E0
1.594781779E1,6.160572032E0,-6.265999085E0,4.476984984E0,9.861986962E0
1.595777279E1,5.770658058E0,-6.400516620E0,4.291942828E0,9.627454526E0
1.596772779E1,4.012753191E0,-5.302211300E0,2.240299866E0,7.016735446E0
1.597768279E1,1.890704929E0,-4.277858639E0,3.422506884E-2,4.677179815E0
1.598763779E1,1.438131899E0,-3.633747489E0,-4.784869393E-1,3.937168263E0
1.599759279E1,8.300281955E-1,-3.782504164E0,-3.597068198E-1,3.889173891E0
1.600754779E1,-7.161424879E-2,-3.754527576E0,5.012280035E-1,3.788513618E0
1.601750279E1,-1.363077185E0,-3.369141685E0,1.031125052E0,3.777871620E0
1.602745779E1,-1.166239514E0,-2.196516500E0,1.859549063E0,3.105273266E0
1.603741279E1,-3.410417765E-2,-4.511641431E-1,2.497644013E0,2.538294269E0
1.604736779E1,8.015474313E-1,3.163010377E-1,3.628780280E0,3.729687782E0
1.605732279E1,1.757806926E0,1.059451742E0,4.306256812E0,4.770342850E0
1.606727779E1,2.410993978E0,1.908014880E0,4.621886881E0,5.551148628E0
1.607723279E1,2.753812577E0,2.379527333E0,4.684772516E0,5.932345874E0
1.608718779E1,3.144339340E0,2.718903238E0,4.438163272E0,6.080838588E0
1.609714279E1,3.370345335E0,2.948338625E0,3.868807020E0,5.917735723E0
1.610709779E1,3.317304949E0,3.349042466E0,3.254594438E0,5.728261737E0
1.611705279E1,3.130532017E0,3.867586414E0,2.886765397E0,5.752553332E0
1.612700779E1,3.111263395E0,4.448437123E0,2.838952715E0,6.126026875E0
1.613696279E1,3.203245945E0,4.834275588E0,3.266894934E0,6.656095518E0
1.614691779E1,3.205771065E0,4.933217493E0,3.714709207E0,6.957921202E0
1.615687279E1,3.038581335E0,4.874900873E0,4.175652233E0,7.101669284E0
1.616682779E1,2.653507686E0,4.778776740E0,4.611387913E0,7.151413053E0
1.617678279E1,2.274051457E0,4.474609260E0,4.955426388E0,7.053345925E0
1.618673779E1,1.988920172E0,4.314846371E0,5.231683939E0,7.067122434E0
1.619669279E1,1.778790829E0,4.385286609E0,5.200226503E0,7.031158592E0
1.620664779E1,1.595734388E0,4.588107224E0,4.908273856E0,6.905667845E0
1.621660279E1,1.360156939E0,4.771755989E0,4.513293854E0,6.707421526E0
1.622655779E1,1.020272912E0,5.067881793E0,4.075776235E0,6.583033845E0
1.623651279E1,4.319462821E-1,5.403437712E0,3.611959594E0,6.513829044E0
1.624646779E1,5.604446568E-2,5.672644690E0,2.896526739E0,6.369607988E0
1.625642279E1,1.703228138E-1,5.792641835E0,2.090997354E0,6.160842412E0
1.626637779E1,5.315891591E-1,5.774010267E0,1.228896450E0,5.927222628E0
1.627633279E1,5.929173151E-1,4.981449421E0,-8.163297772E-2,5.017275478E0
1.628628779E1,8.791241225E-2,2.953694090E0,-2.081663444E0,3.614603721E0
1.629624279E1,-1.225470493E0,-1.107247467E0,-4.677552374E0,4.960571650E0
1.630619779E1,-3.119890962E0,-6.638667281E0,-7.263529397E0,1.032300742E1
1.631615279E1,-5.377774867E0,-1.122506829E1,-9.122677342E0,1.543197533E1
1.632610779E1,-6.794241809E0,-1.400579823E1,-1.048965228E1,1.877117233E1
1.633606279E1,-6.340887884E0,-1.348584744E1,-1.104678317E1,1.855010401E1
1.634601779E1,-4.790784290E0,-8.772556009E0,-8.473297266E0,1.310366817E1
1.635597279E1,-2.463910549E0,-3.220344665E0,-6.137292513E0,7.355802767E0
1.636592779E1,-6.058661203E-1,1.547643378E0,-4.956858956E0,5.228070819E0
1.637588279E1,1.995672975E-2,5.163045813E0,-3.719763540E0,6.363495983E0
1.638583779E1,1.013667604E0,6.579421538E0,-1.557484242E0,6.836817019E0
1.639579279E1,2.920922200E0,6.058779024E0,4.823909059E-1,6.743388670E0
1.640574779E1,4.551683456E0,4.416173941E0,1.616770331E0,6.544796472E0
1.641570279E1,4.345275574E0,1.572586430E0,2.742907813E0,5.373824631E0
1.642565779E1,4.276164993E0,-2.957964311E0,2.840031234E0,5.924602715E0
1.643561279E1,3.892544670E0,-7.292913995E0,1.251021144E0,8.360834435E0
1.644556779E1,2.633574235E0,-1.147598868E1,-8.800922021E-1,1.180714156E1
1.645552279E1,2.361518202E0,-1.435766496E1,-4.189948676E0,1.514182886E1
1.646547779E1,3.722507638E0,-1.034566343E1,-5.858491423E0,1.245840024E1
1.647543279E1,5.727652956E0,-1.008744687E0,-2.214080366E-1,5.820016817E0
1.648538779E1,6.861617521E0,8.561563910E0,6.620575411E0,1.281460847E1
1.649534279E1,9.391225339E0,1.247182096E1,8.555643019E0,1.780282166E1
1.650529779E1,5.822393637E0,1.144016162E1,8.841323358E0,1.558674323E1
1.651525279E1,-2.082450187E0,6.062532937E0,1.035576391E1,1.217919334E1
1.652520779E1,-7.693578075E0,-2.156747248E0,1.048144630E1,1.317965928E1
