"Time (s)","Linear Acceleration x (m/s^2)","Linear Acceleration y (m/s^2)","Linear Acceleration z (m/s^2)","Absolute acceleration (m/s^2)"
1.912694700E-2,-4.025421143E-1,-3.030042648E-1,-3.705120087E-1,6.254045785E-1
2.715291800E-2,-7.251830101E-1,-5.101881027E-1,2.171959877E-1,9.128835607E-1
3.514837200E-2,-9.803562164E-1,-3.959636688E-1,8.147964478E-1,1.334832869E0
4.317434200E-2,-1.038853645E0,-1.920681000E-1,1.426112175E0,1.774796604E0
5.120031300E-2,-9.417557716E-1,-2.160692215E-2,1.706936836E0,1.949616412E0
5.922628400E-2,-8.169598579E-1,1.491112709E-1,1.824923515E0,2.004994618E0
6.722173900E-2,-7.457776070E-1,1.771426201E-1,1.757408619E0,1.917302480E0
7.524771000E-2,-8.480844498E-1,6.305885315E-2,1.544833660E0,1.763443986E0
8.327368100E-2,-8.769836426E-1,-7.598304749E-2,1.266873837E0,1.542673994E0
9.126913400E-2,-7.594504356E-1,-1.825318336E-1,9.275784492E-1,1.212635400E0
9.929510500E-2,-5.738692284E-1,-3.264870644E-1,5.982346535E-1,8.909570108E-1
1.073210760E-1,-4.766383171E-1,-4.596204758E-1,2.639513016E-1,7.128150929E-1
1.153470470E-1,-5.037441254E-1,-6.318767071E-1,-6.890583038E-2,8.110328786E-1
1.233425010E-1,-5.062055588E-1,-7.498688698E-1,-2.166695595E-1,9.303188097E-1
1.313684720E-1,-5.697011948E-1,-8.894221783E-1,-2.155284882E-1,1.077999903E0
1.393944430E-1,-3.589158058E-1,-6.987342834E-1,-9.949350357E-2,7.918011820E-1
1.473898960E-1,-9.047126770E-2,-4.843273163E-1,3.170742989E-1,5.859130572E-1
1.554158680E-1,1.997489929E-1,-1.719498634E-1,1.232679367E0,1.260541486E0
1.634418390E-1,2.143216133E-1,2.412462234E-2,2.050631523E0,2.061942142E0
1.714678100E-1,3.257417679E-2,1.005797386E-1,2.404298306E0,2.406621637E0
1.794632640E-1,-2.426013947E-1,9.502744675E-2,2.215785980E0,2.231052030E0
1.874892340E-1,-5.813221931E-1,-2.642047405E-1,1.669411659E0,1.787365359E0
1.955152050E-1,-9.804408550E-1,-9.520685673E-1,8.272314072E-1,1.597501370E0
2.035106600E-1,-9.120097160E-1,-1.420932770E0,2.830972672E-1,1.712003423E0
2.115366310E-1,-6.408457756E-1,-1.606063008E0,2.580757141E-1,1.748349155E0
2.195626020E-1,-4.370779991E-1,-1.549149036E0,6.218652725E-1,1.725577101E0
2.275580550E-1,-7.144379616E-2,-1.276915789E0,1.203711510E0,1.756285724E0
2.355840260E-1,4.016885757E-1,-1.118477583E0,2.373914719E0,2.654772477E0
2.436099970E-1,1.218226671E0,-7.529257536E-1,3.931143761E0,4.183881533E0
2.516054510E-1,1.965594053E0,-4.532765150E-1,5.058227539E0,5.445611574E0
2.596314220E-1,2.585881948E0,-2.286502123E-1,5.612975121E0,6.184218308E0
2.676573930E-1,2.474553108E0,-4.295998812E-1,5.054288864E0,5.643917528E0
2.756528470E-1,1.710607767E0,-7.921674252E-1,3.776136398E0,4.220534831E0
2.836788180E-1,5.278406143E-1,-1.383428574E0,1.917749405E0,2.422860523E0
2.917047880E-1,-6.552360058E-1,-1.881988406E0,2.637691498E-1,2.010171323E0
2.997002430E-1,-1.614245176E0,-2.191917658E0,-1.683211327E0,3.200545403E0
3.077262140E-1,-2.118747711E0,-2.359330416E0,-3.716929436E0,4.885805594E0
3.157216670E-1,-3.030238628E0,-1.773845673E0,-4.865778446E0,6.000389529E0
3.237476380E-1,-2.750597477E0,-2.239904165E0,-5.347990513E0,6.417472998E0
3.317736090E-1,-2.617299557E0,-2.062827349E0,-6.240015984E0,7.074129849E0
3.397690640E-1,-1.623519540E0,-2.375261545E0,-5.469541550E0,6.180094487E0
3.477950340E-1,-1.265004754E0,-2.747547865E0,-5.225547791E0,6.037847796E0
3.557904880E-1,-8.560523987E-1,-3.093392372E0,-4.926424980E0,5.879758937E0
3.638164600E-1,-7.098722458E-2,-3.088739872E0,-4.511604309E0,5.468082536E0
3.718424310E-1,9.949252605E-1,-3.011886597E0,-3.878680706E0,5.010539009E0
3.798378840E-1,1.792071581E0,-2.678874731E0,-3.279757023E0,4.598336276E0
3.878638550E-1,2.378331184E0,-2.087962389E0,-2.782810211E0,4.214270854E0
3.958898260E-1,2.371295691E0,-1.844839215E0,-2.305189610E0,3.786868643E0
4.038852800E-1,2.417335033E0,-1.944057822E0,-1.449240208E0,3.423911018E0
4.119112510E-1,2.881352901E0,-2.451147556E0,6.034202576E0,7.121932295E0
4.199372220E-1,3.080083132E-1,-2.266778946E0,1.926378250E0,2.990666995E0
4.279631930E-1,-2.304184437E-2,-2.720025778E0,5.491189957E-1,2.774996005E0
4.359586470E-1,-3.047661304E0,-3.441598177E0,-1.361214638E0,4.794344870E0
4.439846170E-1,-3.381645441E0,-1.187542677E0,-2.032680988E0,4.120385358E0
4.520105880E-1,-1.834318399E0,7.813241482E-1,-1.589529514E0,2.549861857E0
4.600060430E-1,-1.887937665E0,7.320110798E-1,-1.253280640E0,2.381357010E0
4.680320140E-1,-1.866538048E0,4.254372120E-1,3.212356567E-2,1.914678309E0
4.760579850E-1,-3.592424393E-1,8.624303341E-1,1.135909081E0,1.470758529E0
4.840534380E-1,8.761112690E-1,3.662291765E-1,1.529846191E0,1.800589941E0
4.920794090E-1,1.626421213E0,-3.495864868E-1,2.333965302E0,2.866156085E0
5.001053800E-1,1.872123718E0,-5.749937296E-1,2.944042206E0,3.535936865E0
5.081008340E-1,1.835968733E0,-6.350595951E-1,3.398452759E0,3.914532288E0
5.161268050E-1,1.163931847E0,-3.032598495E-1,3.717660904E0,3.907391262E0
5.241527760E-1,-4.502807856E-1,-3.135066628E-1,3.809597015E0,3.848904862E0
5.321482300E-1,-2.046004057E0,-9.162309766E-1,3.392580986E0,4.066351872E0
5.401742020E-1,-2.467708349E0,-7.902104855E-1,2.459408760E0,3.572493325E0
5.482001720E-1,-3.211805344E0,2.776339054E-1,1.112559319E0,3.410361035E0
5.561956260E-1,-1.794294596E0,3.882232904E-1,8.872652054E-1,2.038982581E0
5.642215970E-1,-3.605080843E-1,-6.595241427E-1,1.204937935E0,1.420145627E0
5.722475680E-1,8.306777477E-1,-7.081890702E-1,7.378168106E-1,1.317547314E0
5.802735390E-1,1.544728041E0,-1.121273041E-1,-1.273450851E-1,1.554018669E0
5.882689930E-1,1.316942692E0,-2.621464729E-1,-6.559362411E-1,1.494426706E0
5.962949640E-1,1.280319452E0,-6.141059399E-1,-9.174270630E-1,1.690566893E0
6.043209350E-1,1.365358353E0,-7.202540040E-1,-8.584861755E-1,1.766343051E0
6.123163880E-1,8.381390572E-1,-8.292531967E-1,-5.818042755E-1,1.314775326E0
6.203423590E-1,2.780747414E-2,-8.853635788E-1,-6.213378906E-2,8.879766495E-1
6.283683300E-1,-7.772529125E-1,-1.151540279E0,9.005270004E-1,1.655631597E0
6.363943010E-1,-1.364469886E0,-8.502601981E-1,1.666794777E0,2.315799063E0
6.443897550E-1,-1.277930975E0,-1.803482771E-1,1.466785431E0,1.953738104E0
6.524157260E-1,-1.029075861E0,-3.621071577E-1,1.109242439E0,1.555807671E0
6.604416970E-1,-7.864173651E-1,-5.314666033E-1,7.812366486E-1,1.229324906E0
6.684371510E-1,-2.439697981E-1,-4.131029844E-1,3.057298660E-1,5.688990149E-1
6.764631220E-1,5.345213413E-2,-3.915653229E-1,-5.412006378E-2,3.988853394E-1
6.844890930E-1,1.851042509E-1,-3.174781799E-1,-3.840303421E-1,5.315404802E-1
6.924845470E-1,7.145428658E-2,-3.664772511E-1,-6.280937195E-1,7.306935138E-1
7.005105180E-1,2.463437319E-1,-3.421554565E-1,-6.696004868E-1,7.912777025E-1
7.085364890E-1,7.107180357E-1,-8.117413521E-2,-4.405899048E-1,8.401361977E-1
7.165319420E-1,9.584909678E-1,-4.962062836E-2,-3.351497650E-2,9.603595138E-1
7.245579140E-1,7.734829187E-1,-3.313443661E-1,1.105794907E-1,8.487006176E-1
7.325838850E-1,2.416481972E-1,-5.494363308E-1,1.956510544E-1,6.313109122E-1
7.405793390E-1,-2.891633511E-1,-3.970577717E-1,2.602949142E-1,5.558990556E-1
7.486053090E-1,-7.258395553E-1,-1.690492630E-1,1.207551956E-1,7.549851194E-1
7.566312800E-1,-1.136096478E0,1.587629318E-3,-2.632980347E-1,1.166209064E0
7.646572510E-1,-1.143858314E0,1.940600872E-1,-7.608032227E-1,1.387405025E0
7.726527060E-1,-7.978749871E-1,2.613549232E-1,-1.077124596E0,1.365689674E0
7.806786770E-1,-2.147613764E-1,1.812396049E-1,-1.231564522E0,1.263218672E0
7.887046470E-1,4.728593826E-1,2.059307098E-1,-1.249399185E0,1.351666296E0
7.967306180E-1,9.425442219E-1,2.860569954E-2,-1.061729431E0,1.420027211E0
8.047260720E-1,1.069042206E0,-2.517452240E-1,-5.028400421E-1,1.207921770E0
8.127520430E-1,8.765889406E-1,-3.291170597E-1,3.548049927E-2,9.370085782E-1
8.207780140E-1,3.838080168E-1,-4.113974571E-1,3.154249191E-1,6.450188688E-1
8.288039850E-1,-2.972246408E-1,-4.181015491E-1,5.708951950E-1,7.675107271E-1
8.367994390E-1,-4.252039194E-1,-3.420014381E-1,5.107860565E-1,7.474394640E-1
8.448254100E-1,-5.377926826E-1,-3.646807671E-1,3.602123260E-1,7.429441104E-1
8.528513810E-1,-6.926537752E-1,-2.796609402E-1,1.478252411E-1,7.614668710E-1
8.608468340E-1,-6.967134476E-1,-2.038602829E-1,-1.161394119E-1,7.351578103E-1
8.688728050E-1,-4.239736199E-1,8.130168915E-2,-3.774719238E-1,5.734532660E-1
8.768987770E-1,-9.868818521E-2,2.607598305E-1,-6.010684967E-1,6.625846246E-1
8.849247480E-1,1.670419574E-1,2.136006355E-1,-7.799797058E-1,8.257703001E-1
8.929202010E-1,2.776340246E-1,5.081057549E-2,-7.128572464E-1,7.666993022E-1
9.009461720E-1,3.440906405E-1,-5.438852310E-2,-5.102167130E-1,6.178005945E-1
9.089721430E-1,2.828615308E-1,-1.297430992E-1,-5.211219788E-1,6.069695496E-1
9.169675980E-1,2.319005728E-1,-1.589133739E-1,-5.559530258E-1,6.229888466E-1
9.249935690E-1,4.017322063E-1,-8.120346069E-2,-5.577497482E-1,6.921470576E-1
9.330195390E-1,4.994571805E-1,-4.179215431E-2,-5.079765320E-1,7.136134923E-1
9.410149930E-1,4.400160313E-1,-1.463332176E-1,-3.776216507E-1,5.980180845E-1
9.490409640E-1,9.298837185E-2,-3.124697208E-1,-1.562461853E-1,3.615204478E-1
9.570669350E-1,-1.726638377E-1,-4.152984619E-1,6.068515778E-2,4.538373075E-1
9.650929060E-1,-3.899380565E-1,-3.948941231E-1,3.068151474E-1,6.341360982E-1
9.730883600E-1,-3.165046573E-1,-2.220089436E-1,4.406518936E-1,5.862058175E-1
9.811143310E-1,-9.666100144E-2,-1.434328556E-1,2.226343155E-1,2.819261813E-1
9.891403020E-1,1.257924736E-1,-1.720666885E-1,-1.124229431E-1,2.409763678E-1
9.971662730E-1,2.650981545E-1,-1.284637451E-1,-2.990140915E-1,4.197492016E-1
1.005192244E0,2.796327472E-1,-4.454994202E-2,-4.136180878E-1,5.012575118E-1
1.013187697E0,2.428110242E-1,-1.147804260E-1,-5.135431290E-1,5.795328161E-1
1.021213668E0,6.096878648E-2,-3.670303822E-1,-5.630798340E-1,6.748980618E-1
1.029239640E0,1.882244945E-1,-2.090609074E-1,-5.266389847E-1,5.970624285E-1
1.037265611E0,2.965609729E-1,-3.345704079E-2,-5.526924133E-1,6.281215551E-1
1.045261064E0,3.302101195E-1,5.199646950E-2,-4.880628586E-1,5.915637834E-1
1.053287035E0,1.353738010E-1,-8.957624435E-2,-3.517856598E-1,3.874314391E-1
1.061313006E0,-2.073626965E-1,-2.424368858E-1,-1.241979599E-1,3.423449500E-1
1.069338977E0,-4.151675999E-1,-1.973471642E-1,1.410665512E-1,4.808428133E-1
1.077334431E0,-4.542658925E-1,-6.090617180E-2,3.441133499E-1,5.731326726E-1
1.085360402E0,-4.440822601E-1,5.505633354E-2,3.707876205E-1,5.811400117E-1
1.093386373E0,-3.773941100E-1,1.184427738E-1,2.262268066E-1,4.556682707E-1
1.101412344E0,-2.161152810E-1,1.128003597E-1,3.627777100E-3,2.438091397E-1
1.109407798E0,7.614293694E-2,1.581554413E-1,-2.205343246E-1,2.818621628E-1
1.117433768E0,2.592756152E-1,2.606663704E-1,-2.912683487E-1,4.690501596E-1
1.125459739E0,1.355998516E-1,3.603043556E-1,-2.441902161E-1,4.558896907E-1
1.133455194E0,-5.328211188E-2,3.723340034E-1,-7.763004303E-2,3.840547059E-1
1.141481165E0,-1.402283013E-1,3.772659302E-1,2.614812851E-1,4.799646039E-1
1.149507136E0,-1.999212801E-1,3.269124031E-1,5.650005341E-1,6.826901501E-1
1.157502589E0,-3.439036012E-1,2.395019531E-1,8.932332993E-1,9.866593127E-1
1.165528560E0,-6.209459305E-1,1.114244461E-1,1.227598190E0,1.380212510E0
1.173554531E0,-8.762972951E-1,9.545135498E-2,1.496511459E0,1.736823094E0
1.181549985E0,-9.146646261E-1,7.632303238E-2,1.647456169E0,1.885881336E0
1.189575956E0,-7.856633067E-1,-3.004503250E-2,1.678146362E0,1.853198518E0
1.197601927E0,-4.878422320E-1,-2.376821041E-1,1.447166443E0,1.545565767E0
1.205597382E0,-2.439813316E-1,-4.276559353E-1,1.209983826E0,1.306322069E0
1.213623353E0,-1.783028841E-1,-6.313648224E-1,1.153503418E0,1.327020570E0
1.221649323E0,1.656768918E-1,-7.033808231E-1,1.051647186E0,1.275991857E0
1.229675294E0,2.166153938E-1,-8.522140980E-1,9.941129684E-1,1.327196930E0
1.237670748E0,2.963171601E-1,-7.322304249E-1,8.163003922E-1,1.135918828E0
1.245696719E0,3.424134851E-1,-5.415942669E-1,4.591274261E-1,7.882698384E-1
1.253722690E0,3.439995944E-1,-5.503463745E-1,-2.256202698E-2,6.494042639E-1
1.261718144E0,4.391221404E-1,-7.006871700E-1,-3.906850815E-1,9.145630636E-1
1.269744115E0,7.354817390E-1,-6.990070343E-1,-5.501852036E-1,1.154230471E0
1.277770086E0,6.857287884E-1,-8.600456715E-1,-2.812633514E-1,1.135346467E0
1.285765539E0,1.076911762E-1,-1.086806774E0,-9.911060333E-2,1.096617192E0
1.293791510E0,-5.555568263E-2,-9.231054783E-1,5.562400818E-2,9.264470779E-1
1.301817481E0,6.168361008E-2,-4.783968925E-1,1.025772095E-2,4.824662427E-1
1.309812936E0,-5.679113865E-1,-3.176124096E-1,-1.767625809E-1,6.742744216E-1
1.317838906E0,-1.034171939E0,-2.728803158E-1,-3.512945175E-1,1.125781108E0
1.325864877E0,-1.351072431E0,-3.285694122E-2,-4.415521622E-1,1.421775159E0
1.333890848E0,-1.840698004E0,-1.640272141E-1,-4.359169006E-1,1.898709460E0
1.341886302E0,-1.415588379E0,-3.068301678E-1,-3.178119659E-1,1.482915930E0
1.349912273E0,-7.222854495E-1,-3.766171932E-1,-1.845245361E-1,8.352161907E-1
1.357938245E0,-5.939596891E-1,-4.262287617E-1,-4.906272888E-2,7.327115537E-1
1.365964215E0,-6.182967424E-1,-4.275116920E-1,7.551670074E-2,7.554865192E-1
1.373959669E0,-5.403757095E-1,-3.731200695E-1,-2.603530884E-3,6.566820175E-1
1.381985640E0,-5.557131171E-1,-5.007648468E-1,-3.681945801E-1,8.337564088E-1
1.390011611E0,-5.306905508E-1,-5.683698654E-1,-5.675010681E-1,9.626703626E-1
1.398037582E0,-6.533128023E-1,-6.668126583E-1,-5.848512650E-1,1.101593274E0
1.406033036E0,-7.882570624E-1,-6.324639320E-1,-6.360683441E-1,1.194128452E0
1.414059007E0,-1.024158955E0,-5.739212036E-1,-7.830314636E-1,1.411178722E0
1.422084978E0,-1.045933247E0,-6.110649109E-1,-1.001602650E0,1.571809324E0
1.430110949E0,-9.792434573E-1,-3.957610130E-1,-8.466339111E-1,1.353637140E0
1.438106402E0,-1.365854025E0,-2.230575085E-1,-3.789052963E-1,1.434880167E0
1.446132373E0,-1.985718727E0,-6.865673065E-1,-2.257251740E-1,2.113150582E0
1.454158344E0,-2.530189991E0,-1.083698511E0,2.694368362E-1,2.765657257E0
1.462184315E0,-1.534685493E0,-5.511176586E-1,6.445693970E-2,1.631914499E0
1.470179769E0,-1.172446012E0,-2.300119400E-2,2.905845642E-3,1.172675211E0
1.478205740E0,-1.660953999E0,1.670675278E-1,3.155517578E-2,1.669633335E0
1.486231711E0,-2.458912373E0,1.397504807E-1,1.760025024E-1,2.469161221E0
1.494227165E0,-2.703525543E0,2.894458771E-1,2.543115616E-1,2.730843029E0
1.502253136E0,-2.760430098E0,5.741591454E-1,1.516284943E-1,2.823583583E0
1.510279107E0,-2.713732719E0,1.029125214E0,3.002166748E-3,2.902318554E0
1.518305078E0,-2.968148947E0,1.249966145E0,2.450656891E-2,3.220702424E0
1.526300532E0,-3.556442976E0,9.727954865E-1,-1.540222168E-1,3.690303584E0
1.534326503E0,-4.081405640E0,3.606939316E-1,-6.196498871E-1,4.143903726E0
1.542352474E0,-4.339916229E0,-2.008409500E-1,-1.400902748E0,4.564837179E0
1.550347928E0,-4.990233898E0,-1.071533203E0,-3.514256001E0,6.196822815E0
1.558373899E0,-5.507796288E0,-1.832202911E0,-5.877131462E0,8.260354815E0
1.566399870E0,-4.808395386E0,-2.086115122E0,-6.813919067E0,8.596629313E0
1.574425841E0,-2.178287029E0,-2.034542561E0,-6.307138920E0,6.975980158E0
1.582421294E0,3.380963802E-1,-1.653067589E0,-5.308302879E0,5.570010868E0
1.590447265E0,1.500992060E0,-1.193603516E0,-4.765585899E0,5.136971431E0
1.598473236E0,1.806050301E0,-6.917181015E-1,-4.591070175E0,4.981788532E0
1.606499207E0,2.332596302E0,-5.269351006E-1,-4.697238922E0,5.270931569E0
1.614494661E0,3.009195328E0,3.984956741E-1,4.721989632E-1,3.071974476E0
1.622520632E0,4.187127113E0,1.277690887E0,-4.528179169E0,6.298327877E0
1.630546603E0,3.263924122E0,1.577125549E0,-4.977011204E0,6.157204414E0
1.638542057E0,3.981431007E0,5.222811699E-1,-5.331452847E0,6.674500726E0
1.646568028E0,4.752744675E0,-3.593937159E0,-5.410670280E0,8.048622188E0
1.654593998E0,3.651848793E0,-5.647054672E0,-6.148259640E0,9.111878109E0
1.662589453E0,1.585138321E0,-6.356806278E0,-6.396947861E0,9.156560025E0
1.670615424E0,2.343173027E-1,-6.104506016E0,-5.689223289E0,8.347883560E0
1.678641395E0,3.231492043E-1,-5.623775482E0,-5.026137829E0,7.549393191E0
1.686636849E0,9.765501022E-1,-5.081758976E0,-4.065806389E0,6.580935039E0
1.694662820E0,1.245339870E0,-5.350490570E0,-3.138833284E0,6.326997323E0
1.702688791E0,1.554462910E0,-6.815614700E0,-2.607316256E0,7.461035902E0
1.710714762E0,3.093373299E0,-8.484044075E0,-2.966512918E0,9.505164971E0
1.718710215E0,4.134679794E0,-9.847846985E0,-3.003737688E0,1.109495865E1
1.726736186E0,5.158458710E0,-1.053440857E1,-2.817500830E0,1.206324049E1
1.734762157E0,6.880347252E0,-1.097330856E1,-2.584748745E0,1.320733149E1
1.742757612E0,6.904289722E0,-1.166762638E1,-2.836140156E0,1.385086326E1
1.750783582E0,4.600446701E0,-1.284721375E1,-9.495488405E-1,1.367905895E1
1.758809553E0,2.273209095E0,-1.430807304E1,-6.195452213E-1,1.450076791E1
1.766805007E0,3.250365257E0,-1.493987942E1,-2.232033968E0,1.545143511E1
1.774830978E0,1.674976826E0,-1.595494080E1,-2.880875587E0,1.629923702E1
1.782856949E0,-4.081163406E-1,-1.646976280E1,-2.765545368E0,1.670532511E1
1.790852403E0,-6.210527420E-1,-1.656452179E1,-2.235088825E0,1.672616844E1
1.798878374E0,-1.227141380E0,-1.685309410E1,-1.810522556E0,1.699442993E1
1.806873827E0,-2.292334557E0,-1.740720749E1,-1.417818069E0,1.761464954E1
1.814899798E0,-3.232813835E0,-1.777991867E1,-1.262857437E0,1.811550171E1
1.822925769E0,-4.218708038E0,-1.808378792E1,-1.133105278E0,1.860389235E1
1.830921224E0,-5.582675934E0,-1.821794510E1,-1.017956734E0,1.908130054E1
1.838947195E0,-7.305863380E0,-1.814229774E1,-1.111546516E0,1.958964377E1
1.846973166E0,-9.187622070E0,-1.783547211E1,-1.620397568E0,2.012814330E1
1.854999136E0,-1.089414787E1,-1.718227959E1,-2.277925014E0,2.047198408E1
1.862994590E0,-1.249552250E1,-1.614002800E1,-2.737251759E0,2.059444424E1
1.871020562E0,-1.453645515E1,-1.427821255E1,-3.452089310E0,2.066622371E1
1.879046533E0,-1.653931427E1,-1.270848274E1,-4.274486065E0,2.129144620E1
1.887072504E0,-1.889442444E1,-1.117690849E1,-5.683738232E0,2.267658349E1
1.895067957E0,-2.109828568E1,-9.473661423E0,-7.654803276E0,2.436152566E1
1.903093928E0,-2.347172165E1,-7.601527691E0,-9.784993172E0,2.654149641E1
1.911119899E0,-2.583585548E1,-5.344607353E0,-1.265581226E1,2.926133696E1
1.919115353E0,-2.749813080E1,-2.412221909E0,-1.601002121E1,3.191060625E1
1.927141324E0,-2.798466110E1,1.292181015E0,-1.823702431E1,3.342753423E1
1.935197812E0,-2.715633774E1,4.424694061E0,-2.008670807E1,3.406641217E1
1.943223782E0,-2.564572525E1,6.409508228E0,-2.219151497E1,3.451446589E1
1.951219237E0,-2.466861153E1,6.541532993E0,-2.459144020E1,3.544109168E1
1.959245208E0,-2.367046928E1,5.700508595E0,-2.631734467E1,3.585232970E1
1.967271179E0,-2.216764450E1,4.519643784E0,-2.610703659E1,3.454575230E1
1.975266632E0,-2.091832352E1,3.163873672E0,-2.459338188E1,3.244103555E1
1.983292603E0,-2.024352837E1,1.179215431E0,-2.222480011E1,3.008542387E1
1.991318575E0,-1.951704407E1,-1.519866467E0,-1.953394318E1,2.765501653E1
1.999314028E0,-1.820264244E1,-3.760461330E0,-1.662737083E1,2.493885968E1
2.007339999E0,-1.658740997E1,-5.858326435E0,-1.434388161E1,2.269821794E1
2.015365970E0,-1.432794380E1,-7.129567146E0,-1.301507378E1,2.062796274E1
2.023361425E0,-1.068474388E1,-8.534542084E0,-1.208004189E1,1.824635778E1
2.031387396E0,-4.287437916E0,-9.592779160E0,-1.012158489E1,1.458938027E1
2.039413366E0,-2.687172413E0,-1.004819489E1,-9.221109390E0,1.390021491E1
2.047408820E0,3.691978455E-1,-1.151824760E1,-7.852064133E0,1.394493622E1
2.055434791E0,1.656908989E-1,-1.161401558E1,-7.593490124E0,1.387709997E1
2.063460762E0,1.267387867E0,-1.202903175E1,-8.392878532E0,1.472223784E1
2.071456216E0,2.014236927E0,-1.209222507E1,-8.303223610E0,1.480616696E1
2.079482187E0,4.770327568E0,-1.129446411E1,-7.933003426E0,1.460320129E1
2.087477641E0,7.974318027E0,-1.065597534E1,-6.820248604E0,1.495511115E1
2.095503611E0,1.441960335E1,-1.709305954E1,-4.266857624E0,2.276628470E1
2.103529582E0,1.745738220E1,-2.321407890E1,-1.179116249E1,3.134780958E1
2.111525037E0,1.756734085E1,-2.194946480E1,-6.229871750E0,2.879586379E1
2.119551008E0,1.116182232E1,-1.483072472E1,-1.224159241E0,1.860202244E1
2.127546461E0,9.526672363E0,-7.661120415E0,2.143785954E0,1.241152974E1
2.135572432E0,7.378167152E0,-8.206107616E-1,-7.943358421E-1,7.466037904E0
2.143598403E0,5.002706528E0,1.751341105E0,1.560368538E-1,5.302698913E0
2.151593857E0,6.129713058E-1,5.206930637E-1,-2.244281769E-1,8.349988593E-1
2.159619828E0,-2.317531109E0,1.151084900E-3,-2.794947624E-1,2.334324118E0
2.167615282E0,-4.715115547E0,1.186309338E0,-4.276371002E-2,4.862249809E0
2.175641253E0,-5.939355850E0,1.878471971E0,7.683420181E-2,6.229808051E0
2.183636707E0,-6.976568222E0,1.448079109E0,1.086609840E0,7.207645816E0
2.191662678E0,-6.776859283E0,1.122226715E-1,1.700553179E0,6.987867829E0
2.199688649E0,-6.906054497E0,7.337903976E-1,1.114041328E0,7.033713467E0
2.207684102E0,-3.754143715E0,-4.090132713E-1,1.852016449E0,4.206049431E0
2.215710073E0,-2.172930717E0,-9.791364670E-1,1.976875305E0,3.096509663E0
2.223705528E0,-5.291748047E-2,-9.069805145E-1,2.151043653E0,2.335038054E0
2.232433389E0,1.705009460E0,-1.015652657E0,2.201999187E0,2.964356254E0
2.239787987E0,1.518261909E0,2.125728130E-1,2.422265530E0,2.866649041E0
2.247783441E0,1.620481968E0,8.830164671E-1,2.185332298E0,2.860307176E0
2.255809411E0,1.051732063E0,2.643893719E0,1.620054245E-2,2.845448433E0
2.263835382E0,8.087172508E-1,2.881340742E0,-1.016896725E0,3.160732037E0
2.271861353E0,1.505027771E0,8.074202538E-1,-2.295656443E0,2.861306443E0
2.279887324E0,2.127475262E0,-1.024747252E0,-2.549914598E0,3.475388091E0
2.287913295E0,4.093235493E0,-2.732036352E0,-2.018206358E0,5.318999561E0
2.295908749E0,4.901173592E0,-4.385139465E0,-3.254788876E0,7.337888070E0
2.303934720E0,4.916236877E0,-4.517097950E0,-4.516904354E0,8.060768193E0
2.311838624E0,4.304246902E0,-3.784857273E0,-5.264581680E0,7.782512849E0
2.319864594E0,3.619966984E0,-3.073147058E0,-6.299718857E0,7.888906862E0
2.327890565E0,3.775245190E0,-3.221705914E0,-6.874762535E0,8.479046241E0
2.476973884E0,-1.664578915E-1,-3.207397461E-1,-5.707087517E-1,6.754929264E-1
2.484999855E0,-2.900478840E-1,-2.597107887E-1,-6.738662720E-2,3.951182435E-1
2.493025826E0,-3.613133430E-1,-9.434270859E-2,3.972024918E-1,5.451767585E-1
2.501051797E0,-4.554867744E-1,7.254362106E-2,7.891426086E-1,9.140442196E-1
2.509077768E0,-5.312842131E-1,1.314363480E-1,9.964828491E-1,1.136888956E0
2.517073222E0,-6.025998592E-1,1.257920265E-1,1.012505531E0,1.184954714E0
2.525099193E0,-5.684796572E-1,1.120448112E-1,9.218988419E-1,1.088862083E0
2.533125164E0,-4.640109539E-1,1.084861755E-1,7.832641602E-1,9.168304970E-1
2.541151135E0,-3.208842278E-1,5.988693237E-2,6.232290268E-1,7.035393039E-1
2.549177106E0,-2.155047655E-1,4.572820663E-2,4.292249680E-1,4.824597869E-1
2.557203077E0,-8.360636234E-2,4.106903076E-2,2.624588013E-1,2.784983150E-1
2.565198531E0,7.142245770E-2,3.364801407E-2,9.984779358E-2,1.272907624E-1
2.573224502E0,1.848711967E-1,3.159761429E-2,-2.075767517E-2,1.886972435E-1
2.581250473E0,2.440745831E-1,8.155918121E-2,-9.331893921E-2,2.737384272E-1
2.589276444E0,2.886340618E-1,1.321845055E-1,-7.152748108E-2,3.254205674E-1
2.597302415E0,2.703334093E-1,1.857261658E-1,-3.378868103E-2,3.297211486E-1
2.605297868E0,2.218934298E-1,2.322125435E-1,-1.189899445E-2,3.214046446E-1
2.613323839E0,1.537456512E-1,2.478051186E-1,3.390502930E-2,2.935892591E-1
2.621349810E0,3.187108040E-2,2.242588997E-1,7.614421844E-2,2.389681189E-1
2.629375781E0,-1.162611246E-1,1.203289032E-1,1.379327774E-1,2.168435960E-1
2.637401752E0,-2.598856688E-1,5.148315430E-2,2.455234528E-1,3.612102461E-1
2.645427723E0,-3.197488785E-1,-4.329633713E-2,2.778310776E-1,4.257981045E-1
2.653423177E0,-4.759430885E-1,-1.687769890E-1,2.322225571E-1,5.558190457E-1
2.661449148E0,-4.931085110E-1,-1.986532211E-1,2.025203705E-1,5.688880437E-1
2.669475119E0,-3.554723263E-1,-1.633706093E-1,1.698446274E-1,4.264946989E-1
2.677501090E0,-1.127723455E-1,-3.458356857E-2,1.855154037E-1,2.198399194E-1
2.685527061E0,9.045159817E-2,9.420108795E-2,1.815261841E-1,2.236226556E-1
2.693522515E0,2.012736797E-1,1.529512405E-1,1.420650482E-1,2.899787131E-1
2.701548486E0,2.813676596E-1,2.298178673E-1,5.927562714E-2,3.681000026E-1
2.709574457E0,3.068968058E-1,2.952084541E-1,-2.367877960E-2,4.264907565E-1
2.717600428E0,3.008106947E-1,3.388051987E-1,-9.858703613E-2,4.636760080E-1
2.725626399E0,2.249629498E-1,3.582906723E-1,-9.974098206E-2,4.346594047E-1
2.733652370E0,2.481520176E-2,2.300529480E-1,-1.281795502E-1,2.645187143E-1
2.741647823E0,-6.471836567E-2,1.570262909E-1,-2.244949341E-1,2.815025725E-1
2.749673794E0,-1.613121033E-1,4.248666763E-2,-3.535156250E-1,3.908964169E-1
2.757699765E0,-2.579704523E-1,-1.197314262E-1,-4.776997566E-1,5.559509206E-1
2.765725736E0,-3.106944561E-1,-2.611427307E-1,-6.274948120E-1,7.473127257E-1
2.773751707E0,-3.607255220E-1,-3.520121574E-1,-6.754393578E-1,8.427655589E-1
2.781747161E0,-4.154227972E-1,-4.291973114E-1,-6.012902260E-1,8.475472662E-1
2.789773132E0,-4.719609022E-1,-5.048947334E-1,-4.958724976E-1,8.506205493E-1
2.797799103E0,-4.536670446E-1,-5.337166786E-1,-3.984212875E-1,8.058578056E-1
2.805825074E0,-4.308627844E-1,-4.936952591E-1,-2.585916519E-1,7.044482879E-1
2.813851045E0,-3.107571602E-1,-3.989338875E-1,-5.827045441E-2,5.090321257E-1
2.821877016E0,-2.118391991E-1,-2.760019302E-1,1.658830643E-1,3.854479248E-1
2.829902987E0,-2.337616682E-1,-3.353266716E-1,4.171953201E-1,5.840722809E-1
2.837898441E0,-1.227656603E-1,-2.938642502E-1,3.988180161E-1,5.103757584E-1
2.845924412E0,4.714989662E-2,-2.993941307E-1,4.107856750E-1,5.104946905E-1
2.853950383E0,1.645417213E-1,-2.212290764E-1,3.867063522E-1,4.749295581E-1
2.861976354E0,2.525409460E-1,-1.459512711E-1,3.723163605E-1,4.729674145E-1
2.870002325E0,4.028478861E-1,-1.067390442E-1,3.026065826E-1,5.150246467E-1
2.878028296E0,4.789742231E-1,-1.008229256E-1,1.558027267E-1,5.136692111E-1
2.886054266E0,5.666124821E-1,-1.074571609E-1,-3.738403320E-3,5.767241298E-1
2.894080237E0,5.582900047E-1,-1.415777206E-1,-1.725358963E-1,6.012492128E-1
2.902075691E0,5.107964277E-1,-1.859552860E-1,-3.276786804E-1,6.347170051E-1
2.910101662E0,3.928880692E-1,-2.160253525E-1,-4.662971497E-1,6.468856310E-1
2.918127634E0,3.353861570E-1,-1.515283585E-1,-5.210866928E-1,6.379467526E-1
2.926153605E0,3.150765896E-1,-4.434728622E-2,-4.480190277E-1,5.495097709E-1
2.934179575E0,4.477920532E-1,1.269047260E-1,-2.400999069E-1,5.237084091E-1
2.942205546E0,6.437560320E-1,2.634541988E-1,3.884983063E-2,6.966629407E-1
2.950201000E0,7.385526896E-1,4.196579456E-1,2.717428207E-1,8.918615516E-1
2.958226971E0,8.254137039E-1,5.644807816E-1,2.821035385E-1,1.039003726E0
2.966252942E0,8.747936487E-1,5.898396969E-1,3.048191071E-1,1.098221054E0
2.974278912E0,9.469374418E-1,5.346844196E-1,2.184133530E-1,1.109180932E0
2.982304883E0,9.763862491E-1,3.909621239E-1,1.953878403E-1,1.069746651E0
2.990330854E0,7.311419845E-1,1.916439533E-1,3.912611008E-1,8.511059013E-1
2.998326309E0,4.365560412E-1,3.100371361E-2,7.198400497E-1,8.424441255E-1
3.006352280E0,2.284887433E-1,-7.661867142E-2,1.023547173E0,1.051535231E0
3.014378251E0,1.212148666E-1,-1.607520580E-1,1.250802040E0,1.266901737E0
3.022404221E0,1.266604066E-1,-1.913766861E-1,1.339905739E0,1.359417259E0
3.030430192E0,2.712115049E-1,-2.213113308E-1,1.255886078E0,1.303757733E0
3.038456163E0,4.514029622E-1,-1.823196411E-1,1.056844711E0,1.163583186E0
3.046482134E0,6.056721210E-1,-2.149033546E-1,7.857093811E-1,1.015067191E0
3.054477589E0,6.305313706E-1,-2.615613937E-1,4.544086456E-1,8.200435289E-1
3.062503559E0,6.208436489E-1,-2.992315292E-1,2.586565018E-1,7.361314627E-1
3.070529530E0,5.567888021E-1,-3.893456459E-1,2.475423813E-1,7.231051325E-1
3.078555501E0,4.418123662E-1,-4.388298988E-1,3.085222244E-1,6.949502213E-1
3.086581472E0,3.120843768E-1,-5.165042877E-1,4.412937164E-1,7.476051643E-1
3.094607443E0,2.986025512E-1,-6.240868568E-1,4.923839569E-1,8.491700946E-1
3.102633414E0,2.555944026E-1,-7.616627216E-1,3.876419067E-1,8.920341070E-1
3.110628867E0,3.045420349E-1,-9.354646206E-1,2.585182190E-1,1.017188074E0
3.118654838E0,3.883190453E-1,-1.068600893E0,5.394554138E-2,1.138248510E0
3.126680809E0,4.635602236E-1,-1.163269520E0,-2.237033844E-1,1.272056312E0
3.134706780E0,4.358888865E-1,-1.227043867E0,-4.673652649E-1,1.383497764E0
3.142732752E0,3.922899067E-1,-1.235470295E0,-6.652889252E-1,1.457013238E0
3.150728205E0,3.885595798E-1,-1.190596342E0,-7.793207169E-1,1.475072533E0
3.158754176E0,4.175093770E-1,-1.006928205E0,-7.214946747E-1,1.307200465E0
3.166780147E0,4.489499331E-1,-7.645204067E-1,-6.542835236E-1,1.101877681E0
3.174806118E0,5.243718624E-1,-5.994317532E-1,-6.113367081E-1,1.004000422E0
3.182832089E0,5.819006562E-1,-3.853862286E-1,-5.613040924E-1,8.956523896E-1
3.190827543E0,6.255816221E-1,-2.429955006E-1,-5.972299576E-1,8.983778723E-1
3.198853514E0,6.926074028E-1,-1.458773613E-1,-6.664543152E-1,9.721864909E-1
3.206879485E0,7.583749890E-1,-1.039867401E-1,-7.257614136E-1,1.054834345E0
3.214905456E0,7.982117534E-1,-1.402094364E-1,-7.444677353E-1,1.100469399E0
3.222931427E0,8.241588473E-1,-1.919126511E-1,-7.707052231E-1,1.144576259E0
3.230926881E0,8.545862436E-1,-2.324275970E-1,-8.166713715E-1,1.204695964E0
3.238952851E0,8.757779598E-1,-2.391295433E-1,-8.421716690E-1,1.238314618E0
3.246978822E0,8.931866884E-1,-1.782920361E-1,-8.161582947E-1,1.222981959E0
3.255004793E0,9.450508356E-1,-5.761575699E-2,-7.647056580E-1,1.217051930E0
3.263000248E0,9.799891710E-1,-1.335120201E-2,-7.842626572E-1,1.255238999E0
3.271026219E0,9.225308895E-1,-7.736206055E-2,-8.450288773E-1,1.253444029E0
3.279052189E0,8.353403807E-1,-1.400704384E-1,-9.231624603E-1,1.252853626E0
3.287078160E0,7.732461691E-1,-1.702301502E-1,-8.637742996E-1,1.171748259E0
3.295104131E0,7.483267188E-1,-8.967447281E-2,-7.490415573E-1,1.062590064E0
3.303099586E0,7.176765203E-1,2.622747421E-2,-6.672077179E-1,9.802620094E-1
3.311125557E0,6.494738460E-1,1.543641090E-1,-6.450777054E-1,9.283155717E-1
3.319151528E0,6.016060114E-1,2.215015888E-1,-6.820983887E-1,9.360827734E-1
3.327177498E0,5.867008567E-1,2.964069843E-1,-6.581954956E-1,9.302130434E-1
3.335203469E0,5.900147557E-1,4.310050011E-1,-4.916296005E-1,8.806715546E-1
3.343198923E0,6.050050855E-1,5.692920685E-1,-3.280944824E-1,8.931800502E-1
3.351224894E0,5.992323756E-1,6.404936314E-1,-1.694993973E-1,8.933317287E-1
3.359250865E0,5.491426587E-1,6.508133411E-1,-8.265686035E-2,8.555394913E-1
3.367307353E0,4.911344647E-1,6.398060322E-1,-5.755805969E-2,8.086270781E-1
3.375333324E0,4.527621865E-1,5.855627060E-1,-6.285381317E-2,7.428511843E-1
3.383359295E0,3.900414109E-1,5.714030266E-1,-4.786300659E-2,6.934872662E-1
3.391354749E0,3.480142951E-1,6.038103104E-1,3.815364838E-2,6.979660030E-1
3.399380720E0,3.603637218E-1,6.187016964E-1,2.142438889E-1,7.473648674E-1
3.407406691E0,3.907041550E-1,6.084823608E-1,4.015951157E-1,8.271512299E-1
3.415432662E0,4.288471937E-1,4.948060513E-1,4.537897110E-1,7.966605587E-1
3.423458633E0,4.192054272E-1,3.069438934E-1,3.250160217E-1,6.128483975E-1
3.431454086E0,4.170907140E-1,1.635887623E-1,1.583499908E-1,4.751848761E-1
3.439480057E0,3.938223720E-1,6.969285011E-2,-6.289958954E-2,4.048573976E-1
3.447506028E0,3.903850317E-1,5.234336853E-2,-1.737241745E-1,4.304885481E-1
3.455531999E0,4.302002788E-1,1.623733044E-1,-2.844552994E-1,5.406960210E-1
3.463557970E0,5.346492529E-1,2.701420784E-1,-3.422498703E-1,6.898996593E-1
3.471553424E0,6.387524009E-1,3.875405788E-1,-3.661861420E-1,8.320364298E-1
3.479579395E0,7.404421568E-1,4.321990013E-1,-3.438673019E-1,9.237398366E-1
3.487605366E0,8.465004563E-1,5.353214741E-1,-3.446102142E-1,1.059192288E0
3.495631337E0,9.060829282E-1,6.200625896E-1,-3.444671631E-1,1.150704790E0
3.503626790E0,9.699928761E-1,7.324743271E-1,-2.433195114E-1,1.239600421E0
3.511652761E0,9.230871201E-1,7.753360271E-1,-1.927680969E-1,1.220817482E0
3.519678733E0,8.725378513E-1,7.540597916E-1,-2.676725388E-1,1.183882198E0
3.527704704E0,8.591667414E-1,7.339582443E-1,-2.217683792E-1,1.151539582E0
3.535700158E0,8.630585074E-1,6.813817024E-1,-1.768655777E-1,1.113747029E0
3.543726128E0,9.265899658E-1,5.970420837E-1,-1.212387085E-1,1.108930583E0
3.551752099E0,8.216619492E-1,4.780135155E-1,-1.166543961E-1,9.577230956E-1
3.559778070E0,7.032535076E-1,4.006538391E-1,-1.412210464E-1,8.216035411E-1
3.567804041E0,6.595472693E-1,3.646740913E-1,-1.634969711E-1,7.711815953E-1
3.575799496E0,6.453298926E-1,3.120560646E-1,-1.783237457E-1,7.386670536E-1
3.583825467E0,6.833985448E-1,3.002133369E-1,-1.521110535E-1,7.617738452E-1
3.591851437E0,7.173619270E-1,3.836803436E-1,-6.554985046E-2,8.161590062E-1
3.599877408E0,7.085881233E-1,5.192685127E-1,-4.562091827E-2,8.796693612E-1
3.607872862E0,7.571886182E-1,6.270923615E-1,-1.303005219E-2,9.832340594E-1
3.615898833E0,7.153758407E-1,6.660933495E-1,5.629825592E-2,9.790875534E-1
3.623924804E0,5.977389812E-1,6.957197189E-1,1.122779846E-1,9.240801712E-1
3.631950774E0,4.480782747E-1,6.405444145E-1,8.841419220E-2,7.866945765E-1
3.639946229E0,3.448640704E-1,5.704841614E-1,4.439830780E-2,6.680977587E-1
3.647972200E0,2.724290192E-1,4.903478622E-1,-2.446460724E-2,5.614776162E-1
3.655998171E0,2.114275694E-1,4.508266449E-1,8.583068848E-4,4.979427854E-1
3.664024142E0,1.876424551E-1,5.049161911E-1,1.069746017E-1,5.491753968E-1
3.672050113E0,1.490529180E-1,5.983433723E-1,2.114067078E-1,6.518622245E-1
3.680106601E0,1.010998487E-1,6.254258156E-1,2.855844498E-1,6.949367656E-1
3.688132572E0,-4.018294811E-2,6.047334671E-1,3.370265961E-1,6.934725388E-1
3.696128025E0,-2.335064113E-1,5.060415268E-1,3.965425491E-1,6.839950762E-1
3.704153996E0,-4.346741438E-1,3.392553329E-1,4.401121140E-1,7.055029873E-1
3.712179967E0,-5.818302631E-1,2.376418114E-1,5.555343628E-1,8.388197148E-1
3.720205938E0,-7.205852270E-1,1.765537262E-1,7.107944489E-1,1.027444907E0
3.728201392E0,-7.449941635E-1,2.083539963E-1,8.831739426E-1,1.174062990E0
3.736227363E0,-6.072596312E-1,2.981295586E-1,1.045745850E0,1.245483792E0
3.744253334E0,-4.033084214E-1,3.803348541E-1,1.245533943E0,1.363329413E0
3.752279305E0,-2.306302041E-1,4.265265465E-1,1.417649269E0,1.498280560E0
3.760305276E0,-3.701296449E-2,3.863844872E-1,1.590721130E0,1.637393247E0
3.768300730E0,1.333556771E-1,3.474926949E-1,1.746072769E0,1.785302502E0
3.776326701E0,2.360359728E-1,2.776699066E-1,1.887748718E0,1.922604687E0
3.784352672E0,2.431245744E-1,1.542081833E-1,1.990139008E0,2.010856283E0
3.792378643E0,1.763113737E-1,1.406192780E-2,2.078032494E0,2.085546087E0
3.800374097E0,3.761735559E-2,-1.182470322E-1,2.107025146E0,2.110675815E0
3.808400067E0,-1.305203438E-1,-3.209910393E-1,2.099565506E0,2.127967603E0
3.816426038E0,-2.629515827E-1,-5.043330193E-1,2.022777557E0,2.101219735E0
3.824452009E0,-3.947927654E-1,-6.003241539E-1,1.894216537E0,2.025908860E0
3.832447464E0,-4.562626183E-1,-6.839427948E-1,1.740639687E0,1.925040218E0
3.840473435E0,-5.356152654E-1,-6.871395111E-1,1.512462616E0,1.745447675E0
3.848499406E0,-5.847034454E-1,-6.965229511E-1,1.274552345E0,1.565728591E0
3.856525376E0,-6.473836899E-1,-7.167923450E-1,9.574098587E-1,1.359974465E0
3.864520830E0,-7.598754764E-1,-7.825601101E-1,6.550264359E-1,1.272348497E0
3.872546801E0,-9.136807919E-1,-8.427646160E-1,3.406791687E-1,1.288847192E0
3.880572772E0,-1.016960621E0,-9.533596039E-1,6.619644165E-2,1.395523345E0
3.888568226E0,-1.120894909E0,-1.017542839E0,-2.216682434E-1,1.530011646E0
3.896594197E0,-1.212446451E0,-1.084599495E0,-4.181261063E-1,1.679646362E0
3.904620168E0,-1.294652700E0,-1.124733925E0,-5.836896896E-1,1.811586506E0
3.912646139E0,-1.427396774E0,-1.121055126E0,-7.353687286E-1,1.958313896E0
3.920641593E0,-1.557750463E0,-1.089180470E0,-9.228677750E-1,2.112956585E0
3.928667564E0,-1.686714888E0,-1.104031563E0,-1.093129635E0,2.293212856E0
3.936693535E0,-1.774035692E0,-1.131421566E0,-1.198615074E0,2.421568808E0
3.944719506E0,-1.835262060E0,-1.135269642E0,-1.260893822E0,2.499375366E0
3.952714959E0,-1.840758085E0,-1.131830692E0,-1.316227436E0,2.530194796E0
3.960740930E0,-1.815132618E0,-1.137331486E0,-1.345703602E0,2.529653635E0
3.968766901E0,-1.751703024E0,-1.111175060E0,-1.327693462E0,2.462913606E0
3.976792872E0,-1.690470576E0,-1.088716984E0,-1.351143837E0,2.422516276E0
3.984788327E0,-1.618780851E0,-1.041249752E0,-1.320342064E0,2.334085615E0
3.992814298E0,-1.516038418E0,-9.475786686E-1,-1.254186153E0,2.183863715E0
4.000840268E0,-1.415884495E0,-8.960206509E-1,-1.229426861E0,2.078237791E0
4.008866239E0,-1.336841941E0,-8.413560390E-1,-1.195500851E0,1.980971641E0
4.016861693E0,-1.217937231E0,-8.313682079E-1,-1.190658092E0,1.895312874E0
4.024887664E0,-1.074822545E0,-8.533713818E-1,-1.217556000E0,1.834646786E0
4.032913635E0,-9.801195860E-1,-8.562633991E-1,-1.250217915E0,1.804678987E0
4.040939605E0,-8.637841344E-1,-8.472898006E-1,-1.338926792E0,1.804646223E0
4.048965577E0,-7.904465795E-1,-8.110468388E-1,-1.409991741E0,1.808501999E0
4.056991548E0,-7.457025051E-1,-6.955971718E-1,-1.482165813E0,1.799095092E0
4.064987002E0,-7.294340134E-1,-5.321979523E-1,-1.548182487E0,1.792254908E0
4.073012973E0,-7.074252963E-1,-3.786230087E-1,-1.615101814E0,1.803430011E0
4.081038944E0,-7.266008854E-1,-1.620626450E-1,-1.651146889E0,1.811214840E0
4.089064914E0,-7.530154586E-1,3.088426590E-2,-1.644171715E0,1.808669883E0
4.097060369E0,-7.808339596E-1,2.061772346E-1,-1.660699844E0,1.846655002E0
4.105086340E0,-8.033609390E-1,2.914729118E-1,-1.683672428E0,1.888146737E0
4.113112311E0,-8.230689764E-1,3.264336586E-1,-1.688630581E0,1.906692086E0
4.121138282E0,-8.097386956E-1,3.162484169E-1,-1.718788147E0,1.926115913E0
4.129164252E0,-7.874125242E-1,2.775292397E-1,-1.762098789E0,1.949880280E0
4.137159706E0,-6.909743547E-1,2.371644974E-1,-1.802133083E0,1.944576100E0
4.145185677E0,-6.012147069E-1,2.125144005E-1,-1.791380882E0,1.901490720E0
4.153211648E0,-4.662626386E-1,2.309861183E-1,-1.764080048E0,1.839220990E0
4.161237619E0,-3.606409431E-1,2.857708931E-1,-1.701516628E0,1.762636017E0
4.169263590E0,-2.881546021E-1,3.896069527E-1,-1.589836121E0,1.662048598E0
4.177259044E0,-2.734686136E-1,4.866042137E-1,-1.366302967E0,1.475924301E0
4.185285015E0,-3.550378680E-1,5.507855415E-1,-1.124454975E0,1.301466708E0
4.193310986E0,-4.502002597E-1,5.417060852E-1,-9.145579338E-1,1.154357818E0
4.201336957E0,-5.342317820E-1,5.015430450E-1,-7.599067688E-1,1.055654925E0
4.209362928E0,-6.402421594E-1,4.709725380E-1,-6.578645706E-1,1.031751398E0
4.217388898E0,-6.334468722E-1,4.922876358E-1,-5.815162659E-1,9.908396559E-1
4.225384353E0,-6.127087474E-1,5.415372849E-1,-5.092372894E-1,9.633261426E-1
4.233410324E0,-6.026074886E-1,6.540384293E-1,-3.951797485E-1,9.731747458E-1
4.241436295E0,-5.336446762E-1,8.002581596E-1,-2.758455276E-1,1.000640054E0
4.249462266E0,-4.847954512E-1,9.368457794E-1,-1.375551224E-1,1.063780079E0
4.257457719E0,-4.980949759E-1,9.939713478E-1,-4.724979401E-2,1.112793866E0
4.265483690E0,-5.844457150E-1,1.024755001E0,5.701541901E-2,1.181080168E0
4.273509661E0,-6.738048792E-1,1.038886070E0,1.943216324E-1,1.253418597E0
4.281535632E0,-7.496665120E-1,1.008163452E0,2.878828049E-1,1.288902609E0
4.289531086E0,-7.368717790E-1,9.476323128E-1,3.593721390E-1,1.253050419E0
4.297557057E0,-6.748177409E-1,8.880848885E-1,4.535856247E-1,1.204082087E0
4.305583028E0,-5.918014646E-1,8.545718193E-1,5.602884293E-1,1.180866246E0
4.313608999E0,-3.817498088E-1,8.182177544E-1,6.770439148E-1,1.128539619E0
4.321604452E0,-1.987155080E-1,7.829318047E-1,8.435802460E-1,1.167945930E0
4.329630424E0,-8.619225025E-2,7.104082108E-1,9.926347733E-1,1.223696336E0
4.337656395E0,-7.210224867E-2,6.509623528E-1,1.140867233E0,1.315495634E0
4.345682366E0,-1.281387210E-1,5.487360954E-1,1.219306946E0,1.343220109E0
4.353708337E0,-1.941734552E-1,4.695568085E-1,1.255136490E0,1.354088083E0
4.361703790E0,-2.971930504E-1,3.782200813E-1,1.237544060E0,1.327738468E0
4.369729761E0,-4.017688632E-1,2.932176590E-1,1.217414856E0,1.315102181E0
4.377755732E0,-4.156579077E-1,1.921391487E-1,1.197683334E0,1.282238011E0
4.385781703E0,-3.699276745E-1,1.948423386E-1,1.183073044E0,1.254779601E0
4.393777158E0,-2.762847543E-1,2.973775864E-1,1.117641449E0,1.189070689E0
4.401803129E0,-1.972990632E-1,3.284997940E-1,1.129194260E0,1.192442330E0
4.409829099E0,-4.189699888E-2,2.110185623E-1,1.148608208E0,1.168582478E0
4.417855070E0,6.989616156E-2,-3.100252151E-2,1.166068077E0,1.168572373E0
4.425850524E0,2.642731071E-1,-2.482233047E-1,1.211583138E0,1.264669436E0
4.433876495E0,3.879301548E-1,-4.322876930E-1,1.312776566E0,1.435529437E0
4.441902466E0,4.801086187E-1,-5.751264095E-1,1.423347473E0,1.608475272E0
4.449897920E0,5.115711093E-1,-6.740279198E-1,1.605464935E0,1.814810264E0
4.457923891E0,5.234518051E-1,-7.713541985E-1,1.817857742E0,2.042938047E0
4.465949862E0,4.291722178E-1,-8.210289478E-1,1.979049683E0,2.185157883E0
4.473975833E0,3.462805152E-1,-8.780558109E-1,2.070306778E0,2.275315881E0
4.481971287E0,3.086900711E-1,-9.654481411E-1,2.057042122E0,2.293207789E0
4.489997258E0,2.863644361E-1,-1.075297356E0,1.939224243E0,2.235812975E0
4.498023229E0,2.995688915E-1,-1.113497734E0,1.842372894E0,2.173466495E0
4.506049200E0,3.745237589E-1,-1.062834501E0,1.603301048E0,1.959709028E0
4.514044653E0,2.946478724E-1,-1.032535791E0,1.369170189E0,1.739992683E0
4.522070624E0,1.837803125E-1,-1.077097654E0,1.198760033E0,1.622017317E0
4.530096595E0,4.060974717E-2,-1.160143375E0,9.781198502E-1,1.517992175E0
4.538122566E0,-1.050936729E-1,-1.398641348E0,7.534532547E-1,1.592147640E0
4.546118021E0,-1.947465837E-1,-1.678598166E0,3.754625320E-1,1.731066188E0
4.554143991E0,-2.427640110E-1,-1.977195144E0,-8.022308350E-3,1.992059075E0
4.562169962E0,-1.824627370E-1,-2.104456425E0,-3.567209244E-1,2.142260328E0
4.570195933E0,-4.243354499E-2,-2.163126945E0,-6.285848618E-1,2.253006373E0
4.578191387E0,1.920332611E-1,-2.083121300E0,-7.256498337E-1,2.214235490E0
4.586217358E0,4.657796919E-1,-1.931398392E0,-7.045497894E-1,2.107994515E0
4.594243328E0,6.852529049E-1,-1.727639675E0,-6.729850769E-1,1.976668739E0
4.602269300E0,8.722796440E-1,-1.532791257E0,-6.502733231E-1,1.879674496E0
4.610264754E0,9.596643448E-1,-1.327592134E0,-6.059675217E-1,1.746611911E0
4.618290725E0,8.986924887E-1,-1.180766344E0,-4.895687103E-1,1.562541158E0
4.626316696E0,7.090246677E-1,-1.050031662E0,-2.601776123E-1,1.293435294E0
4.634342667E0,3.817097247E-1,-9.981493950E-1,1.113891602E-1,1.074435700E0
4.642338121E0,2.700579166E-2,-9.387669563E-1,4.919910431E-1,1.060220683E0
4.650364092E0,-2.209292948E-1,-8.532772064E-1,7.815990448E-1,1.178044486E0
4.658390063E0,-3.532314897E-1,-7.863991261E-1,9.955873489E-1,1.316962505E0
4.666416034E0,-4.509293437E-1,-7.679159641E-1,1.096359253E0,1.412457367E0
4.674442005E0,-4.980534911E-1,-7.946391106E-1,1.096579552E0,1.442912093E0
4.682437458E0,-5.331683159E-1,-8.775973320E-1,9.831275940E-1,1.421613659E0
4.690463429E0,-4.657639861E-1,-9.970250130E-1,7.508783340E-1,1.332221168E0
4.698489400E0,-3.301889300E-1,-1.166431189E0,4.104824066E-1,1.279875874E0
4.706515371E0,-1.518135369E-1,-1.324929714E0,-1.554012299E-2,1.333689466E0
4.714541342E0,-2.026170492E-2,-1.447779417E0,-4.279804230E-1,1.509848674E0
4.722536796E0,1.035217196E-1,-1.524666905E0,-8.918790817E-1,1.769399394E0
4.730562767E0,2.515609264E-1,-1.490549326E0,-1.294855118E0,1.990394425E0
4.738588738E0,4.062339365E-1,-1.439469099E0,-1.656746864E0,2.232018699E0
4.746614709E0,5.652381182E-1,-1.315151691E0,-1.946821213E0,2.416450069E0
4.754610163E0,6.861848235E-1,-1.157741547E0,-2.093379974E0,2.488665268E0
4.762636134E0,7.439897060E-1,-9.949805737E-1,-2.132635593E0,2.468125118E0
4.770662105E0,7.665712237E-1,-8.193778992E-1,-2.152337551E0,2.427255346E0
4.778688076E0,7.188093066E-1,-7.103424072E-1,-2.078116894E0,2.310810027E0
4.786714047E0,6.508358121E-1,-6.078677177E-1,-2.016900539E0,2.204762618E0
4.794740018E0,6.319704652E-1,-5.685825348E-1,-1.910683155E0,2.091263467E0
4.802735471E0,6.014137268E-1,-5.660901070E-1,-1.832836628E0,2.010334943E0
4.810761442E0,5.960751772E-1,-6.300752163E-1,-1.778232098E0,1.978486742E0
4.818787413E0,5.864228010E-1,-6.360085011E-1,-1.746897221E0,1.949371287E0
4.826813384E0,5.679053068E-1,-6.198694706E-1,-1.681358814E0,1.879819688E0
4.834839355E0,5.623327494E-1,-4.958128929E-1,-1.607836723E0,1.774031419E0
4.842834809E0,5.308827758E-1,-4.232819080E-1,-1.567396164E0,1.708137825E0
4.850860780E0,4.922699034E-1,-3.680751324E-1,-1.555497646E0,1.672537560E0
4.858886751E0,4.553399682E-1,-3.027484417E-1,-1.510299683E0,1.606236669E0
4.866912722E0,3.911804855E-1,-2.005207539E-1,-1.431962490E0,1.497914323E0
4.874908175E0,3.236742318E-1,-2.697634697E-2,-1.253781319E0,1.295168069E0
4.882934147E0,2.903890014E-1,1.048061848E-1,-1.083277702E0,1.126410533E0
4.890960118E0,3.146241903E-1,2.015571594E-1,-9.011211395E-1,9.755167747E-1
4.898986089E0,3.167176843E-1,2.633984089E-1,-7.576313019E-1,8.623769494E-1
4.907012060E0,3.115567267E-1,3.450107574E-1,-5.880222321E-1,7.495799905E-1
4.915007513E0,3.262195587E-1,4.542548656E-1,-3.901510239E-1,6.818977232E-1
4.923033484E0,3.257505894E-1,5.796990395E-1,-1.465673447E-1,6.809158607E-1
4.931059455E0,3.286467493E-1,7.080578804E-1,2.198247910E-1,8.109732342E-1
4.939085426E0,2.920520008E-1,7.977747917E-1,4.938554764E-1,9.826658745E-1
4.947111397E0,2.409283817E-1,8.029797077E-1,7.331132889E-1,1.113677687E0
4.955106851E0,1.813310981E-1,7.343792915E-1,9.347906113E-1,1.202508793E0
4.963132822E0,1.956660599E-1,6.521019936E-1,1.143401146E0,1.330747308E0
4.971158793E0,3.197243214E-1,6.519939899E-1,1.425495148E0,1.599798806E0
4.979184764E0,4.379427433E-1,5.961937904E-1,1.667831421E0,1.824528030E0
4.987210735E0,5.990399122E-1,5.349233150E-1,1.901565552E0,2.064205251E0
4.995206189E0,7.019791603E-1,4.755494595E-1,2.071586609E0,2.238390741E0
5.003232159E0,7.454943061E-1,3.925325871E-1,2.221573830E0,2.375970091E0
5.011258131E0,7.436785698E-1,2.786657810E-1,2.229428291E0,2.366656489E0
5.019284102E0,7.339928150E-1,1.375300884E-1,2.198543549E0,2.321907344E0
5.027310073E0,6.801887751E-1,5.688691139E-2,2.086140633E0,2.194965975E0
5.035336044E0,5.834987164E-1,5.173683167E-4,1.980955124E0,2.065103925E0
5.043362015E0,5.140862465E-1,1.799273491E-2,1.864124298E0,1.933796216E0
5.051357468E0,4.031087756E-1,1.070530415E-1,1.819416046E0,1.866609704E0
5.059383439E0,2.991721332E-1,2.103669643E-1,1.837196350E0,1.873245487E0
5.067409410E0,1.892580986E-1,2.749803066E-1,1.862435341E0,1.892114742E0
5.075435381E0,6.381054223E-2,3.027672768E-1,1.935936928E0,1.960507995E0
5.083461352E0,-5.967062712E-2,2.358596325E-1,1.921312332E0,1.936654700E0
5.091487323E0,-8.640233427E-2,9.634232521E-2,1.899787903E0,1.904190453E0
5.099482777E0,-6.838069856E-2,-1.033313274E-1,1.825765610E0,1.829965394E0
5.107508748E0,9.393507987E-2,-2.476103306E-1,1.746971130E0,1.766930334E0
5.115534719E0,3.349167109E-1,-3.883948326E-1,1.653618813E0,1.731321728E0
5.123560690E0,5.884699225E-1,-4.966320992E-1,1.557594299E0,1.737538573E0
5.131586661E0,7.523730993E-1,-5.741102695E-1,1.463519096E0,1.742858579E0
5.139612632E0,8.401330709E-1,-6.325972080E-1,1.376135826E0,1.731979393E0
5.147608086E0,8.314388394E-1,-6.824655533E-1,1.367519379E0,1.739873279E0
5.155634057E0,6.835313439E-1,-7.098834515E-1,1.344448090E0,1.666940394E0
5.163660028E0,4.132734835E-1,-7.264541388E-1,1.424792290E0,1.651836450E0
5.171685999E0,2.754776180E-1,-5.601270199E-1,1.448211670E0,1.577005782E0
5.179711970E0,1.644079387E-1,-4.496335983E-1,1.443904877E0,1.521204009E0
5.187737941E0,-1.002241392E-2,-3.908736706E-1,1.424011230E0,1.476716174E0
5.195763912E0,-1.449730694E-1,-4.507832527E-1,1.314847946E0,1.397514885E0
5.203759365E0,-2.795991898E-1,-6.326981783E-1,1.109395981E0,1.307379874E0
5.211785336E0,-4.158233702E-1,-8.554111719E-1,7.789287567E-1,1.229376816E0
5.219811307E0,-5.161371231E-1,-1.046875834E0,5.053615570E-1,1.271902845E0
5.227837278E0,-6.252603531E-1,-1.117375731E0,2.669668198E-1,1.307956543E0
5.235863250E0,-6.970068812E-1,-1.124887347E0,3.470420837E-2,1.323780389E0
5.243858703E0,-7.067724466E-1,-1.047628522E0,-2.008504868E-1,1.279606865E0
5.251884674E0,-7.541607618E-1,-1.026523113E0,-4.994602203E-1,1.368199060E0
5.259910645E0,-7.085131407E-1,-9.021986723E-1,-8.207635880E-1,1.410534006E0
5.267936616E0,-6.879517436E-1,-8.200712204E-1,-1.093187332E0,1.529984625E0
5.275962587E0,-7.193943262E-1,-6.928299665E-1,-1.263828278E0,1.610839370E0
5.283958041E0,-7.975304127E-1,-5.251057148E-1,-1.320968628E0,1.629953646E0
5.291984012E0,-9.193577766E-1,-3.599085808E-1,-1.322387695E0,1.650291527E0
5.300009983E0,-1.025546551E0,-2.470679283E-1,-1.323701859E0,1.692623673E0
5.308035954E0,-1.074423194E0,-1.244678497E-1,-1.332291603E0,1.716064789E0
5.316061925E0,-1.113206267E0,-1.816749573E-2,-1.288368225E0,1.702777418E0
5.324087896E0,-1.115996838E0,3.944373131E-2,-1.184917450E0,1.628199654E0
5.332083349E0,-1.098629355E0,3.371024132E-2,-1.074607849E0,1.537174314E0
5.340109320E0,-1.043262243E0,6.678581238E-3,-9.481458664E-1,1.409759304E0
5.348135291E0,-9.532529116E-1,-7.651472092E-2,-8.344774246E-1,1.269211640E0
5.356161263E0,-8.176736236E-1,-1.124508381E-1,-7.264518738E-1,1.099530659E0
5.364187234E0,-7.661274672E-1,-2.109990120E-1,-6.957616806E-1,1.056198937E0
5.372213205E0,-6.842465401E-1,-1.729667187E-1,-6.554155350E-1,9.631616359E-1
5.380208658E0,-5.792185664E-1,-6.333541870E-2,-6.529073715E-1,8.750963140E-1
5.388234629E0,-5.275916457E-1,-5.834102631E-2,-7.475337982E-1,9.168224471E-1
5.396260600E0,-5.446332693E-1,-1.153903008E-1,-9.008045197E-1,1.058956610E0
5.404286571E0,-6.767537594E-1,-1.239764690E-1,-1.175057411E0,1.361662857E0
5.412312542E0,-7.750686407E-1,-1.680567265E-1,-1.414638519E0,1.621781922E0
5.420338513E0,-9.063360095E-1,-1.533238888E-1,-1.679834366E0,1.914888162E0
5.428333967E0,-1.004616499E0,-1.162950993E-1,-1.929790020E0,2.178730911E0
5.436359938E0,-1.070965409E0,-1.246595383E-1,-2.216993332E0,2.465272062E0
5.444385909E0,-1.031550169E0,-5.115008354E-2,-2.421808243E0,2.632843947E0
5.452411880E0,-9.769344926E-1,-1.422262192E-2,-2.517480373E0,2.700427876E0
5.460437851E0,-8.681347370E-1,5.388498306E-2,-2.523402691E0,2.669105216E0
5.468463822E0,-7.296601534E-1,3.232264519E-2,-2.535856247E0,2.638942136E0
5.476459275E0,-6.164204478E-1,-1.539278030E-2,-2.538675785E0,2.612486526E0
5.484485247E0,-5.561071634E-1,-2.549648285E-3,-2.485144615E0,2.546606651E0
5.492511218E0,-5.538297892E-1,1.014559269E-1,-2.371229649E0,2.437160394E0
5.500537189E0,-5.639938712E-1,1.615843773E-1,-2.190249920E0,2.267464070E0
5.508532642E0,-6.409320235E-1,2.421684265E-1,-1.968413353E0,2.084248194E0
5.516558613E0,-6.905230284E-1,2.791557312E-1,-1.789729595E0,1.938525728E0
5.524584584E0,-7.773261666E-1,2.486307621E-1,-1.651750565E0,1.842371611E0
5.532610555E0,-8.613285422E-1,2.148416042E-1,-1.547144890E0,1.783732346E0
5.540636526E0,-9.596875906E-1,2.281062603E-1,-1.463954449E0,1.765274870E0
5.548662497E0,-1.036210537E0,2.482559681E-1,-1.349730968E0,1.719632807E0
5.556657951E0,-1.036406040E0,3.070790768E-1,-1.225414276E0,1.634036471E0
5.564683922E0,-9.609723687E-1,3.787345886E-1,-1.086341858E0,1.499015148E0
5.572709893E0,-7.601293325E-1,4.306957722E-1,-9.390659332E-1,1.282630218E0
5.580735864E0,-5.180405974E-1,4.643230438E-1,-7.208528519E-1,1.001793783E0
5.588761835E0,-2.847657502E-1,4.689905643E-1,-4.719533920E-1,7.237290143E-1
5.596787806E0,-1.565673947E-1,4.226861000E-1,-2.497253418E-1,5.153053799E-1
5.604783259E0,-6.251829863E-2,4.291510582E-1,2.280330658E-2,4.342800470E-1
5.612809231E0,-4.717010260E-2,4.358026981E-1,3.239631653E-1,5.450698512E-1
5.620835202E0,8.648538589E-2,4.837062359E-1,6.448612213E-1,8.107388231E-1
5.628861173E0,1.232137084E-1,4.380524158E-1,9.452009201E-1,1.049035898E0
5.636887144E0,8.741432428E-2,3.676404953E-1,1.286936760E0,1.341270674E0
5.644913115E0,8.926260471E-2,3.029065132E-1,1.558978081E0,1.590639125E0
5.652939085E0,8.189809322E-2,2.454226017E-1,1.844454765E0,1.862512532E0
5.660965056E0,4.059696198E-2,2.139325142E-1,2.098778725E0,2.110044400E0
5.668960510E0,4.205673933E-2,1.679136753E-1,2.318175316E0,2.324629125E0
5.676986481E0,6.402254105E-3,1.030919552E-1,2.534535408E0,2.536639248E0
5.685012452E0,-3.670662642E-2,3.253936768E-2,2.738681793E0,2.739121055E0
5.693038422E0,-4.221570492E-2,1.406049728E-2,2.956878662E0,2.957213433E0
5.701064393E0,-3.058075905E-3,5.784296989E-2,3.095557213E0,3.096099097E0
5.709090365E0,6.155300140E-2,1.751365662E-1,3.157423973E0,3.162876497E0
5.717116336E0,1.304438114E-1,2.725434303E-1,3.195172310E0,3.209426989E0
5.725111790E0,1.817895174E-1,3.705599308E-1,3.251238823E0,3.277333669E0
5.733137761E0,2.788916826E-1,4.319152832E-1,3.212406158E0,3.253288292E0
5.741163731E0,3.324475884E-1,4.105112553E-1,3.046713829E0,3.092168502E0
5.749189702E0,4.125217199E-1,3.044123650E-1,2.836556435E0,2.882515128E0
5.757215673E0,4.490671754E-1,9.454226494E-2,2.643035889E0,2.682580526E0
5.765241644E0,4.951260090E-1,-2.259633541E-1,2.496188164E0,2.554831609E0
5.773267615E0,3.668530583E-1,-4.948334694E-1,2.359376907E0,2.438462778E0
5.781293586E0,2.162182927E-1,-6.133930683E-1,2.340374947E0,2.429064902E0
5.789289040E0,-4.025638103E-3,-7.155139446E-1,2.292122841E0,2.401208764E0
5.797315011E0,-2.521003187E-1,-7.779486179E-1,2.205718040E0,2.352435057E0
5.805340982E0,-4.432595372E-1,-9.715893269E-1,2.087714195E0,2.344997953E0
5.813366953E0,-6.497044563E-1,-1.186835289E0,1.848513603E0,2.290785111E0
5.821392924E0,-7.828519344E-1,-1.458354473E0,1.475226402E0,2.217193690E0
5.829418895E0,-8.736678958E-1,-1.670442820E0,1.097784042E0,2.181468453E0
5.837444866E0,-8.554235697E-1,-1.830787063E0,6.156873703E-1,2.112487086E0
5.845470837E0,-8.076785803E-1,-2.098024368E0,5.560493469E-2,2.248809207E0
5.853466291E0,-6.407596469E-1,-2.256896973E0,-4.373435974E-1,2.386509227E0
5.861492262E0,-4.874648750E-1,-2.374595165E0,-7.981185913E-1,2.552120195E0
5.869518233E0,-2.658068538E-1,-2.281310320E0,-1.001569748E0,2.505628069E0
5.877544204E0,4.027485847E-4,-2.105161667E0,-1.015200615E0,2.337164542E0
5.885570175E0,2.074953914E-1,-1.832619071E0,-8.812789917E-1,2.044064495E0
5.893596146E0,3.050745130E-1,-1.540924788E0,-7.079896927E-1,1.723011626E0
5.901622116E0,3.138887286E-1,-1.237543344E0,-5.146360397E-1,1.376550005E0
5.909648087E0,1.684900820E-1,-1.013365269E0,-2.529935837E-1,1.057971563E0
5.917643541E0,-9.703308344E-2,-9.014289379E-1,1.515769958E-2,9.067630921E-1
5.925669512E0,-3.332357407E-1,-8.372614384E-1,1.132974625E-1,9.082340503E-1
5.933695484E0,-5.908250809E-1,-8.572597504E-1,1.880817413E-1,1.057990216E0
5.941721455E0,-7.361615300E-1,-9.497325420E-1,1.273460388E-1,1.208363651E0
5.949747425E0,-8.689377308E-1,-1.045554876E0,-5.432987213E-2,1.360584255E0
5.957773396E0,-9.878752828E-1,-1.232317209E0,-3.348884583E-1,1.614513412E0
5.965799367E0,-1.025062680E0,-1.360520124E0,-6.503925323E-1,1.823397640E0
5.973825338E0,-9.563478827E-1,-1.446371078E0,-1.068325043E0,2.036641590E0
5.981820792E0,-8.576961160E-1,-1.511040926E0,-1.517132282E0,2.306637741E0
5.989846762E0,-7.026383877E-1,-1.500843525E0,-1.968565464E0,2.573224043E0
5.997872733E0,-5.488092303E-1,-1.456130505E0,-2.349565506E0,2.818149337E0
6.005898704E0,-3.863602281E-1,-1.358617544E0,-2.612850189E0,2.970202345E0
6.013924675E0,-2.699357271E-1,-1.231002569E0,-2.773257732E0,3.046176468E0
6.021950646E0,-1.766686738E-1,-1.100598574E0,-2.861455441E0,3.070904798E0
6.029946101E0,-1.409832239E-1,-9.591612816E-1,-2.911380291E0,3.068550445E0
6.037972071E0,-1.614959538E-1,-8.357567787E-1,-2.930040359E0,3.051181221E0
6.045998042E0,-2.061401308E-1,-6.959888935E-1,-2.873670578E0,2.963929298E0
6.054024013E0,-2.965798080E-1,-5.571792126E-1,-2.751572132E0,2.823040463E0
6.062049984E0,-3.343268037E-1,-4.870474339E-1,-2.666382313E0,2.731040873E0
6.070075955E0,-3.672906160E-1,-4.816260338E-1,-2.615334988E0,2.684556412E0
6.078101926E0,-3.383672237E-1,-4.876663685E-1,-2.605803490E0,2.672549848E0
6.086097380E0,-3.099371791E-1,-5.085165501E-1,-2.601441860E0,2.668735635E0
6.094123351E0,-2.641194761E-1,-5.740029812E-1,-2.643358707E0,2.717827032E0
6.102149322E0,-2.141103148E-1,-6.198637486E-1,-2.652396679E0,2.732266904E0
6.110175293E0,-1.628067791E-1,-6.390311718E-1,-2.666900158E0,2.747221021E0
6.118201264E0,-7.516485453E-2,-6.121013165E-1,-2.670293808E0,2.740581471E0
6.126227235E0,-1.789075136E-2,-4.432339668E-1,-2.540702820E0,2.579136919E0
6.134222688E0,5.350905657E-2,-2.395262718E-1,-2.347920418E0,2.360713100E0
6.142248659E0,1.114076376E-1,-3.516030312E-2,-2.024760246E0,2.028127699E0
6.150274630E0,1.025006771E-1,1.546950340E-1,-1.748256683E0,1.758078034E0
6.158300602E0,1.271098256E-1,3.676304817E-1,-1.348145962E0,1.403141694E0
6.166296055E0,1.589311361E-1,5.343916416E-1,-8.402156830E-1,1.008362993E0
6.174322026E0,1.951189637E-1,6.599991322E-1,-2.269058228E-1,7.246768361E-1
6.182347997E0,3.048102856E-1,7.207705975E-1,2.866067886E-1,8.334044730E-1
6.190373968E0,4.635166526E-1,7.820689678E-1,8.660764694E-1,1.255614594E0
6.198399939E0,5.574648976E-1,7.996890545E-1,1.335474014E0,1.653408763E0
6.206395394E0,5.791739225E-1,7.602791786E-1,1.812647820E0,2.049184955E0
6.214421364E0,5.327526331E-1,7.945587635E-1,2.161362648E0,2.363606882E0
6.222447335E0,4.127173424E-1,8.570172787E-1,2.426355362E0,2.606149375E0
6.230473306E0,2.116304636E-1,9.261155128E-1,2.641261101E0,2.806908905E0
6.238499277E0,6.996822357E-2,1.080047131E0,2.863209724E0,3.060942221E0
6.246525248E0,3.518909216E-2,1.237572670E0,3.011008263E0,3.255609796E0
6.254520701E0,1.772749424E-2,1.413637877E0,3.143634796E0,3.446900933E0
6.262546672E0,7.413774729E-2,1.553568840E0,3.309052467E0,3.656350746E0
6.270572643E0,2.707034349E-2,1.671303511E0,3.451534271E0,3.834980711E0
6.278598614E0,1.681383252E-1,1.779504299E0,3.510663986E0,3.939500942E0
6.286624586E0,3.769698143E-1,1.828815937E0,3.514329910E0,3.979596549E0
6.294620040E0,4.259048700E-1,1.772067070E0,3.480933189E0,3.929187260E0
6.302646010E0,5.026189089E-1,1.716737270E0,3.355183601E0,3.802245340E0
6.310671981E0,3.632074594E-1,1.575011492E0,3.285073280E0,3.661186599E0
6.318697952E0,1.793689728E-1,1.434736252E0,3.338134766E0,3.637826969E0
6.326723923E0,-4.519248009E-2,1.124510765E0,3.397806168E0,3.579337030E0
6.334719378E0,-3.205226064E-1,8.274662495E-1,3.364323616E0,3.479383355E0
6.342745348E0,-6.345615387E-1,5.427806377E-1,3.238254547E0,3.344184756E0
6.350771319E0,-9.815529585E-1,3.889636993E-1,3.027343750E0,3.206173600E0
6.358797290E0,-1.228080988E0,3.635420799E-1,2.762853622E0,3.045275997E0
6.366823261E0,-1.338671446E0,3.706965446E-1,2.447163582E0,2.813905962E0
6.374818715E0,-1.322020054E0,3.911237717E-1,2.142493248E0,2.547742559E0
6.382844685E0,-1.115041971E0,2.876198292E-1,1.958306313E0,2.271785064E0
6.390870656E0,-8.693156242E-1,3.243255615E-2,1.767223358E0,1.969730927E0
6.398896627E0,-5.910828710E-1,-3.561501503E-1,1.494404793E0,1.646046043E0
6.406892082E0,-3.025076091E-1,-7.639465332E-1,1.227948189E0,1.477491764E0
6.414918053E0,-1.128208935E-1,-1.204381466E0,1.027574539E0,1.587190191E0
6.422944024E0,-8.755722642E-2,-1.674266696E0,7.063941956E-1,1.819293268E0
6.430969994E0,-2.372295260E-1,-2.078325987E0,3.747100830E-1,2.125117503E0
6.438995965E0,-5.776874423E-1,-2.441206694E0,-1.205320358E-1,2.511521625E0
6.446991420E0,-8.674613237E-1,-2.558957815E0,-6.070823669E-1,2.769350691E0
6.455017391E0,-1.279509425E0,-2.756966591E0,-1.224795341E0,3.276909028E0
6.463043362E0,-1.245632410E0,-2.182265759E0,-1.839904785E0,3.114343199E0
6.471069332E0,-1.348448515E0,-2.308948994E0,-2.309720516E0,3.533322475E0
6.479095303E0,-1.926138997E0,-2.524189234E0,-2.637287140E0,4.127569040E0
6.487090757E0,-2.229994059E0,-2.625659227E0,-2.619642735E0,4.327757842E0
6.495116728E0,-2.533347607E0,-2.588085890E0,-2.543031216E0,4.425273600E0
6.503142699E0,-2.610678911E0,-2.305006266E0,-2.283496857E0,4.164499509E0
6.511168670E0,-2.374057770E0,-1.659570456E0,-1.893604755E0,3.460644934E0
6.519164124E0,-1.930134416E0,-9.552503824E-1,-1.506768703E0,2.628359580E0
6.527190095E0,-1.320792675E0,-3.184249401E-1,-1.007313728E0,1.691321578E0
6.535216066E0,-8.185043335E-1,3.175020218E-2,-4.427204132E-1,9.311062150E-1
6.543211519E0,-4.955818057E-1,8.969235420E-2,-1.024570465E-1,5.139489186E-1
6.551237490E0,-3.262444735E-1,-1.702570915E-2,7.322025299E-2,3.347932745E-1
6.559263462E0,-3.163281977E-1,-1.989669800E-1,4.833316803E-2,3.768122648E-1
6.567289433E0,-2.924769521E-1,-3.454096317E-1,-3.111171722E-2,4.536722607E-1
6.575315404E0,-2.901834846E-1,-4.847998619E-1,-1.772537231E-1,5.921623453E-1
6.583310857E0,-2.257975638E-1,-5.660722256E-1,-4.310865402E-1,7.464970928E-1
6.591336828E0,-8.128003776E-2,-5.126936436E-1,-7.710781097E-1,9.295281965E-1
6.599362799E0,-2.645984292E-3,-4.186825752E-1,-1.163477898E0,1.236520488E0
6.607358254E0,4.201078415E-2,-2.779111862E-1,-1.531293392E0,1.556874750E0
6.615384224E0,1.220916808E-1,-1.502251625E-1,-1.840904713E0,1.851054872E0
6.623410195E0,7.971301675E-2,-5.656957626E-3,-2.166199207E0,2.167672755E0
6.631436166E0,1.373353899E-1,1.120290756E-1,-2.444741249E0,2.451157135E0
6.639431620E0,2.208285332E-1,2.117345333E-1,-2.623729229E0,2.641505597E0
6.647457591E0,2.835001051E-1,2.451651096E-1,-2.786905289E0,2.811995613E0
6.655483562E0,3.218537569E-1,2.583947182E-1,-2.900995255E0,2.930210084E0
6.663479016E0,4.095389843E-1,3.338069916E-1,-2.959225655E0,3.006021584E0
6.671504987E0,4.337869287E-1,4.235804081E-1,-2.916325569E0,2.978681971E0
6.679530958E0,4.512283802E-1,4.924986362E-1,-2.863660812E0,2.940529749E0
6.687526411E0,4.158534408E-1,5.271706581E-1,-2.746657372E0,2.827537746E0
6.695552382E0,3.461242318E-1,5.566785336E-1,-2.488840103E0,2.573716774E0
6.703578353E0,2.205747962E-1,5.292489529E-1,-2.248540878E0,2.320494296E0
6.711604325E0,8.190220594E-2,4.094388485E-1,-2.001772881E0,2.044857650E0
6.719599778E0,7.577478886E-3,2.602245808E-1,-1.760609150E0,1.779752463E0
6.727625749E0,8.653163910E-3,1.312217712E-1,-1.542046547E0,1.547643881E0
6.735651720E0,5.899530649E-2,5.650281906E-2,-1.317341805E0,1.319872132E0
6.743677691E0,2.592577338E-1,6.281852722E-2,-1.105580330E0,1.137307613E0
6.751673146E0,3.539291620E-1,9.485101700E-2,-9.256973267E-1,9.955792825E-1
6.759699116E0,3.526400328E-1,2.306354046E-1,-7.199335098E-1,8.341774039E-1
6.767725087E0,2.837749124E-1,3.872163296E-1,-4.662504196E-1,6.692190528E-1
6.775720541E0,7.315266132E-2,5.224781036E-1,-2.192888260E-1,5.713337640E-1
6.783746512E0,-1.998212337E-1,7.539246082E-1,2.418260574E-1,8.165847674E-1
6.791772483E0,-3.247578144E-1,1.085937977E0,7.141876221E-1,1.339698805E0
6.799798454E0,-3.345592618E-1,1.489490986E0,1.167354584E0,1.921777828E0
6.807793908E0,-3.269006610E-1,1.839289665E0,1.577575684E0,2.445116675E0
6.815819879E0,-2.553179860E-1,1.973745108E0,1.796271324E0,2.680941569E0
6.823845850E0,-9.253293276E-2,1.936692715E0,1.983625412E0,2.773826020E0
6.831871821E0,1.058973074E-1,1.694535255E0,2.098814964E0,2.699571860E0
6.839867274E0,1.880755424E-1,1.457580805E0,2.161012650E0,2.613405802E0
6.847893245E0,1.367264986E-1,1.130805969E0,2.150684357E0,2.433692560E0
6.855919216E0,-5.582094193E-3,8.535611629E-1,2.115687370E0,2.281387926E0
6.863945188E0,-1.209920645E-1,5.779764652E-1,2.198945999E0,2.276852956E0
6.871940641E0,-3.071370125E-1,3.131361008E-1,2.256179810E0,2.298420043E0
6.879966612E0,-4.658991694E-1,1.486687660E-1,2.308938026E0,2.360160852E0
6.887992583E0,-6.827138662E-1,1.016588211E-1,2.452358246E0,2.547644737E0
6.895988038E0,-8.350697756E-1,1.961717606E-1,2.588145256E0,2.726595085E0
6.904014008E0,-1.002489567E0,4.382300377E-1,2.758669853E0,2.967707913E0
6.912039979E0,-1.269414544E0,7.347228527E-1,2.958719254E0,3.302309885E0
6.920065950E0,-1.670965910E0,1.020274639E0,3.078196526E0,3.648065414E0
6.928061404E0,-2.063619614E0,1.146255732E0,3.109929085E0,3.904367686E0
6.936087375E0,-2.364016533E0,1.178329945E0,3.087916374E0,4.063528413E0
6.944113346E0,-2.590738535E0,1.004215956E0,2.942510605E0,4.047066160E0
6.952139316E0,-2.658537388E0,6.620481014E-1,2.801963806E0,3.918817411E0
6.960134771E0,-2.478335381E0,1.776952744E-1,2.730123520E0,3.691516802E0
6.968160742E0,-2.055891991E0,-3.798038960E-1,2.683316231E0,3.401636205E0
6.976186713E0,-1.550834775E0,-8.857345581E-1,2.683263779E0,3.223277635E0
6.984182166E0,-9.151086807E-1,-1.483446360E0,2.719091415E0,3.229782520E0
6.992208137E0,-3.700385094E-1,-2.048241138E0,2.642478943E0,3.363765037E0
7.000234108E0,1.335988045E-1,-2.460241318E0,2.425295830E0,3.457267106E0
7.008260079E0,5.640978813E-1,-2.735963106E0,2.087200165E0,3.487134220E0
7.016286051E0,7.436635494E-1,-2.866783857E0,1.739590645E0,3.434772303E0
7.024281504E0,7.489669323E-1,-2.940699577E0,1.317199707E0,3.308123416E0
7.032307475E0,5.497171879E-1,-3.067487955E0,7.254810333E-1,3.199686558E0
7.040333446E0,2.055827379E-1,-3.207634926E0,4.770565033E-2,3.214570253E0
7.048359417E0,-2.631275654E-1,-3.218637943E0,-5.787687302E-1,3.280829098E0
7.056354871E0,-5.929706097E-1,-3.038692713E0,-1.175328255E0,3.311595394E0
7.064380842E0,-7.979614139E-1,-2.827667236E0,-1.774059296E0,3.432161244E0
7.072406813E0,-9.296387434E-1,-2.595486164E0,-2.342929363E0,3.618023580E0
7.080432784E0,-1.003936529E0,-2.282569170E0,-2.916378021E0,3.837091520E0
7.088428238E0,-9.287895560E-1,-2.009904861E0,-3.293701172E0,3.968732165E0
7.096454208E0,-8.474798799E-1,-1.719897866E0,-3.398189545E0,3.901789717E0
7.104480179E0,-5.589181185E-1,-1.422845125E0,-3.292166710E0,3.629771254E0
7.112506150E0,-2.955656052E-1,-1.325476170E0,-3.182695389E0,3.460317332E0
7.120532121E0,-1.188179255E-1,-1.342113972E0,-2.968909264E0,3.260338913E0
7.128527576E0,3.318643570E-2,-1.438307762E0,-2.660011292E0,3.024151225E0
7.136553546E0,1.471134424E-1,-1.494904876E0,-2.144604683E0,2.618341498E0
7.144579517E0,2.598530054E-1,-1.460792422E0,-1.621502399E0,2.197887194E0
7.152605488E0,3.561589718E-1,-1.328142405E0,-1.067410469E0,1.740740236E0
7.160600942E0,4.445362091E-1,-1.228685856E0,-6.331605911E-1,1.451955133E0
7.168626914E0,4.260810614E-1,-1.224577785E0,-9.795761108E-2,1.300281321E0
7.176652885E0,4.017874002E-1,-1.289213896E0,3.383827209E-1,1.392123719E0
7.184678855E0,2.715554237E-1,-1.381851315E0,6.230382919E-1,1.539945492E0
7.192674309E0,1.910282373E-1,-1.484105706E0,7.033634186E-1,1.653415142E0
7.200700280E0,1.224035621E-1,-1.568618536E0,6.231365204E-1,1.692290125E0
7.208726251E0,1.314289570E-1,-1.523506165E0,3.880844116E-1,1.577641948E0
7.216752222E0,1.582617760E-1,-1.407813787E0,-1.233386993E-2,1.416735181E0
7.224747676E0,1.920566559E-1,-1.259214520E0,-4.701080322E-1,1.357758642E0
7.232773647E0,1.835482717E-1,-1.014468789E0,-9.429225922E-1,1.397118430E0
7.240799618E0,1.562533975E-1,-8.185157776E-1,-1.424356461E0,1.650204390E0
7.248825589E0,1.371431351E-1,-6.678011417E-1,-1.793113232E0,1.918338256E0
7.256821042E0,1.239879131E-1,-4.710354805E-1,-2.177052498E0,2.230875390E0
7.264847013E0,9.226602316E-2,-3.691661358E-1,-2.423191071E0,2.452886385E0
7.272872984E0,-2.596825361E-2,-2.761116028E-1,-2.615436077E0,2.630098447E0
7.280868438E0,-1.393608451E-1,-1.935827732E-1,-2.747074604E0,2.757410854E0
7.288894409E0,-3.236731887E-1,-1.359412670E-1,-2.847202778E0,2.868764197E0
7.296920380E0,-4.451243281E-1,-2.860665321E-2,-2.911386967E0,2.945357037E0
7.304946351E0,-6.761583090E-1,4.283356667E-2,-2.906948090E0,2.984857110E0
7.312941805E0,-9.433597922E-1,2.643318176E-1,-2.860844135E0,3.023942489E0
7.320967777E0,-1.126884699E0,6.840088367E-1,-2.730050564E0,3.031651908E0
7.328993747E0,-1.217930913E0,1.049466848E0,-2.437968254E0,2.920346826E0
7.337019718E0,-1.285718322E0,1.158241987E0,-2.190280914E0,2.791402262E0
7.345045689E0,-1.293879032E0,1.184956074E0,-1.960811615E0,2.631164388E0
7.353041143E0,-1.177271128E0,1.207756996E0,-1.563026428E0,2.299499051E0
7.361067114E0,-7.611215115E-1,1.350283384E0,-9.210844040E-1,1.803043996E0
7.369093084E0,-4.333600402E-1,1.418025017E0,-2.634057999E-1,1.505980906E0
7.377119055E0,-1.250759959E-1,1.481841326E0,3.112030029E-1,1.519323872E0
7.385114510E0,2.102046013E-1,1.606011391E0,8.465375900E-1,1.827589793E0
7.393140481E0,1.810784340E-1,1.230593920E0,1.476283073E0,1.930430653E0
7.401166452E0,2.831872702E-1,1.261846781E0,2.026792526E0,2.404233822E0
7.409192423E0,4.448765516E-1,1.124416590E0,2.304061890E0,2.602100883E0
7.417187876E0,5.761026144E-1,8.824460506E-1,2.410946846E0,2.631210738E0
7.425213847E0,5.888530016E-1,7.041867971E-1,2.656989098E0,2.811088396E0
7.433239818E0,8.455755711E-1,7.243129015E-1,2.901535034E0,3.107818010E0
7.441265789E0,1.091764688E0,7.447246313E-1,3.339268684E0,3.591278360E0
7.449261243E0,1.156670332E0,7.622135878E-1,3.987886429E0,4.221622198E0
7.457287214E0,1.098995328E0,7.272170186E-1,4.399250984E0,4.592389851E0
7.465313185E0,1.052806139E0,5.239872336E-1,4.446408272E0,4.599294501E0
7.473339156E0,9.536494017E-1,2.646428943E-1,4.259013176E0,4.372490855E0
7.481334610E0,8.347959518E-1,-1.207816601E-2,4.031601906E0,4.117140281E0
7.489360581E0,6.793583632E-1,-3.845334053E-1,3.850481033E0,3.928816350E0
7.497386552E0,5.235519409E-1,-6.924368143E-1,3.730278015E0,3.829954236E0
7.505412523E0,2.885644436E-1,-8.882866502E-1,3.603557587E0,3.722626746E0
7.513407976E0,5.627918243E-2,-9.224048853E-1,3.483896255E0,3.604376678E0
7.521433947E0,-3.122045994E-1,-9.511390924E-1,3.393254280E0,3.537840004E0
7.529459918E0,-6.040351391E-1,-9.937091470E-1,3.351058006E0,3.547098262E0
7.537455373E0,-8.393219113E-1,-8.951249123E-1,3.112166405E0,3.345338490E0
7.545481344E0,-9.384618402E-1,-8.727928400E-1,2.591739655E0,2.891295973E0
7.553507315E0,-1.089450836E0,-9.188778996E-1,2.001165390E0,2.456807407E0
7.561533285E0,-1.279976368E0,-9.355834126E-1,1.532518387E0,2.205055199E0
7.569528739E0,-1.426044226E0,-8.999755383E-1,1.371168137E0,2.173398298E0
7.577554710E0,-1.458020568E0,-8.986890316E-1,1.359646797E0,2.186802544E0
7.585580681E0,-1.414762020E0,-1.188681841E0,1.216317177E0,2.212225930E0
7.593606652E0,-1.235142469E0,-1.636980295E0,8.908519745E-1,2.235821694E0
7.601602106E0,-1.034202337E0,-2.057941914E0,5.643758774E-1,2.371332858E0
7.609628077E0,-8.630740643E-1,-2.360787153E0,3.092117310E-1,2.532553004E0
7.617654048E0,-6.571614742E-1,-2.581726551E0,1.984977722E-1,2.671436796E0
7.625649502E0,-4.246453047E-1,-2.786006689E0,1.738004684E-1,2.823537411E0
7.633675473E0,-2.433125973E-1,-3.015758991E0,1.350498199E-1,3.028570912E0
7.641701444E0,-2.196177244E-1,-3.284613371E0,1.396369934E-2,3.291976902E0
7.649727415E0,-3.820681572E-1,-3.549795628E0,-1.328678131E-1,3.572769084E0
7.657753386E0,-5.927517414E-1,-3.722559214E0,-2.724847794E-1,3.779292220E0
7.665748839E0,-7.888598442E-1,-3.771261215E0,-4.569950104E-1,3.879891164E0
7.673774810E0,-9.768533707E-1,-3.690463305E0,-7.177267075E-1,3.884442500E0
7.681800781E0,-1.166644454E0,-3.430600643E0,-9.967975616E-1,3.758149203E0
7.689826752E0,-1.413237929E0,-3.037961721E0,-1.216386795E0,3.564554629E0
7.697822207E0,-1.742709756E0,-2.762035847E0,-1.419937134E0,3.561193729E0
7.705848177E0,-2.016789436E0,-2.624875546E0,-1.606092930E0,3.679258860E0
7.713874148E0,-2.310678959E0,-2.481099844E0,-1.791561127E0,3.834681859E0
7.721900119E0,-2.454758644E0,-2.357905865E0,-1.989084721E0,3.942336629E0
7.729926090E0,-2.532117367E0,-2.176378012E0,-2.206470013E0,4.002093143E0
7.737921544E0,-2.575441837E0,-1.945105195E0,-2.154814720E0,3.880665066E0
7.745947514E0,-2.697080135E0,-1.667757988E0,-1.889361382E0,3.691252415E0
7.753973486E0,-2.688974380E0,-1.409601927E0,-1.652294159E0,3.456535375E0
7.761999457E0,-2.665321827E0,-1.173152566E0,-1.387910843E0,3.225914427E0
7.770025428E0,-2.521353245E0,-9.472931027E-1,-1.153417587E0,2.930009989E0
7.778020882E0,-2.306771517E0,-8.289322853E-1,-9.698352814E-1,2.636077396E0
7.786046852E0,-2.035209417E0,-7.328761816E-1,-7.097969055E-1,2.276619537E0
7.794072823E0,-1.783677697E0,-6.216863394E-1,-4.497222900E-1,1.941713205E0
7.802098794E0,-1.567073822E0,-5.061681867E-1,-2.903966904E-1,1.672201194E0
7.810124765E0,-1.291757584E0,-3.903829455E-1,-1.383371353E-1,1.356530008E0
7.818120220E0,-1.024753332E0,-2.732924521E-1,1.374721527E-2,1.060658825E0
7.826146191E0,-7.419413328E-1,-1.866436005E-1,7.843017578E-3,7.650975675E-1
7.834172161E0,-4.427969456E-1,-1.546007991E-1,-7.668876648E-2,4.752385811E-1
7.842198132E0,-1.916404963E-1,-8.345752954E-2,-2.179574966E-1,3.019879292E-1
7.850224103E0,-7.168853283E-2,-3.512698412E-2,-3.725872040E-1,3.810437971E-1
7.858250074E0,2.525615692E-2,5.580794811E-2,-5.455160141E-1,5.489445529E-1
7.866276045E0,7.289445400E-2,1.601300836E-1,-6.218185425E-1,6.462302568E-1
7.874302016E0,1.629853249E-2,2.536039352E-1,-6.540651321E-1,7.016992199E-1
7.882297470E0,-8.545994759E-2,3.594692945E-1,-6.831312180E-1,7.766529710E-1
7.890323441E0,-2.381286621E-1,4.504425228E-1,-8.198499680E-1,9.652759688E-1
7.898349412E0,-4.474312067E-1,5.631928444E-1,-1.014276505E0,1.243437852E0
7.906375383E0,-6.377421618E-1,6.932743788E-1,-1.283456802E0,1.592044532E0
7.914401354E0,-8.635650277E-1,8.505364656E-1,-1.531405449E0,1.953038526E0
7.922427325E0,-9.423407912E-1,1.011223555E0,-1.638201237E0,2.143427754E0
7.930422778E0,-1.021736503E0,1.141032457E0,-1.646718025E0,2.248906580E0
7.938448749E0,-1.053922415E0,1.208605528E0,-1.631280899E0,2.287478339E0
7.946474720E0,-1.060054064E0,1.222666144E0,-1.594434738E0,2.271750262E0
7.954500691E0,-1.021705627E0,1.185248375E0,-1.502636909E0,2.169473158E0
7.962526662E0,-8.728759289E-1,1.214661837E0,-1.276731491E0,1.966560211E0
7.970522116E0,-7.346348763E-1,1.178816795E0,-9.738969803E-1,1.696399943E0
7.978548087E0,-6.016300917E-1,1.134139299E0,-6.228799820E-1,1.426958370E0
7.986574058E0,-4.627331495E-1,1.111965656E0,-2.736778259E-1,1.235106935E0
7.994600029E0,-2.844920158E-1,1.074539661E0,1.529283524E-1,1.122033098E0
8.002595484E0,-1.827833652E-1,9.337274432E-1,5.231924057E-1,1.085811673E0
8.010621454E0,-6.549394131E-2,7.889315486E-1,7.556095123E-1,1.094371134E0
8.018647425E0,3.429770470E-2,7.061502934E-1,8.357553482E-1,1.094674185E0
8.026673396E0,9.085333347E-2,7.176836729E-1,8.018760681E-1,1.079967319E0
8.034699367E0,1.545469761E-1,8.383308053E-1,6.755313873E-1,1.087669969E0
8.042694821E0,1.725481749E-1,1.073055863E0,5.644674301E-1,1.224681689E0
8.050720791E0,1.433728933E-1,1.314232469E0,4.374685287E-1,1.392530604E0
8.058746762E0,1.256240606E-1,1.570927382E0,3.733272552E-1,1.619557804E0
8.066772733E0,1.493453979E-2,1.777643204E0,3.167800903E-1,1.805709840E0
8.074798704E0,-6.806123257E-2,1.864016891E0,2.460680008E-1,1.881419879E0
8.082794159E0,-1.382952929E-1,1.919012070E0,1.900463104E-1,1.933352144E0
8.090820130E0,-1.739825010E-1,1.884967804E0,1.294002533E-1,1.897397681E0
8.098846100E0,-1.892713308E-1,1.822493315E0,1.885251999E-1,1.841968314E0
8.106872071E0,-1.993046999E-1,1.740984201E0,5.110540390E-1,1.825356016E0
8.114867525E0,-2.376111746E-1,1.669627905E0,8.957967758E-1,1.909598983E0
8.122893496E0,-3.078225851E-1,1.603609920E0,1.201403618E0,2.027237078E0
8.130919468E0,-4.376890659E-1,1.485404015E0,1.499469757E0,2.155552448E0
8.138945438E0,-5.902768373E-1,1.460039020E0,1.820964813E0,2.407499436E0
8.146940892E0,-7.514548302E-1,1.534617186E0,2.165935516E0,2.758806070E0
8.154966863E0,-8.863059282E-1,1.633624077E0,2.427264214E0,3.057102776E0
8.162992834E0,-9.878420830E-1,1.722903728E0,2.612304688E0,3.281518706E0
8.171018805E0,-1.106389165E0,1.798287392E0,2.654040337E0,3.391439906E0
8.179044776E0,-1.258834124E0,1.930442214E0,2.660159111E0,3.519618870E0
8.187070746E0,-1.396183968E0,1.996772885E0,2.634999275E0,3.588823318E0
8.195066201E0,-1.555973411E0,2.058527470E0,2.578208923E0,3.647704737E0
8.203092172E0,-1.788686633E0,2.078135014E0,2.522894859E0,3.725995636E0
8.211118143E0,-2.043192863E0,2.044677734E0,2.525740623E0,3.838581745E0
8.219144114E0,-2.282884121E0,1.880587935E0,2.581474304E0,3.925835004E0
8.227170084E0,-2.417995691E0,1.722139359E0,2.579639435E0,3.932811558E0
8.235196055E0,-2.399035215E0,1.391064167E0,2.644647598E0,3.832047808E0
8.243191509E0,-2.247941494E0,8.456958532E-1,2.676684380E0,3.596259404E0
8.251217480E0,-1.944007516E0,1.255630255E-1,2.590435028E0,3.241185729E0
8.259243452E0,-1.627804399E0,-5.745673180E-1,2.429080009E0,2.979983969E0
8.267269423E0,-1.120871425E0,-1.200054765E0,2.087066650E0,2.655622600E0
8.275295393E0,-5.688112974E-1,-1.513847828E0,1.688819885E0,2.338245954E0
8.283321364E0,-8.440017700E-3,-1.726985455E0,1.249371529E0,2.131543856E0
8.291316818E0,3.834050894E-1,-1.867588997E0,8.149271011E-1,2.073401626E0
8.299342789E0,5.312185287E-1,-1.963091612E0,4.916419983E-1,2.092279536E0
8.307368760E0,5.309712887E-1,-2.004420042E0,2.679510117E-1,2.090796011E0
8.315394730E0,3.956503868E-1,-2.002742767E0,-4.284477234E-2,2.041899482E0
8.323420701E0,1.538534164E-1,-1.946497679E0,-2.774429321E-1,1.972181195E0
8.331446672E0,-1.269776821E-1,-1.871361256E0,-4.215459824E-1,1.922450857E0
8.339472643E0,-3.741328716E-1,-1.804077744E0,-6.188125610E-1,1.943605130E0
8.347468098E0,-6.488265991E-1,-1.751299739E0,-9.484033585E-1,2.094634971E0
8.355494069E0,-8.126102090E-1,-1.725585818E0,-1.257189751E0,2.284405357E0
8.363520039E0,-9.501575828E-1,-1.658743858E0,-1.614072323E0,2.501891301E0
8.371546010E0,-9.356925488E-1,-1.601804137E0,-1.832249641E0,2.607381021E0
8.379571981E0,-8.116536140E-1,-1.582804918E0,-1.842872143E0,2.561294738E0
8.387567436E0,-5.893597007E-1,-1.553065062E0,-1.805156708E0,2.453150359E0
8.395593407E0,-4.057658911E-1,-1.501533151E0,-1.693580627E0,2.299448434E0
8.403619377E0,-2.615504265E-1,-1.447613478E0,-1.451737881E0,2.066769528E0
8.411645348E0,-1.459358931E-1,-1.372510552E0,-1.060406685E0,1.740558772E0
8.419671319E0,-8.007943630E-2,-1.297097683E0,-5.702600479E-1,1.419179917E0
8.427666773E0,-7.502830029E-2,-1.293532610E0,-8.206081390E-2,1.298302675E0
8.435692744E0,-5.513310432E-2,-1.374259710E0,3.130140305E-1,1.410534365E0
8.443718715E0,-1.356263161E-1,-1.492103457E0,5.507259369E-1,1.596266357E0
8.451744685E0,-2.394351959E-1,-1.595077753E0,7.251396179E-1,1.768454047E0
8.459740140E0,-3.536463380E-1,-1.557855129E0,7.748832703E-1,1.775506243E0
8.467766111E0,-4.801487327E-1,-1.540051818E0,7.491483688E-1,1.778630284E0
8.475792082E0,-5.401661992E-1,-1.512748957E0,5.552110672E-1,1.699543544E0
8.483818053E0,-5.893936157E-1,-1.436743975E0,3.674793243E-1,1.595825535E0
8.491844023E0,-5.914595723E-1,-1.308842421E0,2.378444672E-1,1.455837525E0
8.499839477E0,-6.547805667E-1,-1.076380491E0,1.951694489E-2,1.260045024E0
8.507865449E0,-6.550837755E-1,-8.612058163E-1,-1.300859451E-1,1.089831438E0
8.515891420E0,-5.624012947E-1,-6.903805733E-1,-2.684392929E-1,9.300431206E-1
8.523917391E0,-4.354635477E-1,-5.757467747E-1,-3.878097534E-1,8.194566827E-1
8.531943362E0,-3.338800073E-1,-5.178647041E-1,-4.515790939E-1,7.639262982E-1
8.539938815E0,-3.736757040E-1,-5.305576324E-1,-4.638652802E-1,7.976815977E-1
8.547964786E0,-4.775654078E-1,-5.500037670E-1,-5.062437057E-1,8.870487878E-1
8.555990757E0,-5.301016569E-1,-5.957694054E-1,-6.315851212E-1,1.017275143E0
8.564016728E0,-4.901618659E-1,-5.490100384E-1,-8.163805008E-1,1.099157768E0
8.572042699E0,-3.931843638E-1,-4.127907753E-1,-9.825839996E-1,1.135984808E0
8.580068669E0,-3.207443953E-1,-2.305719852E-1,-1.077392578E0,1.147525675E0
8.588064124E0,-2.558735013E-1,-5.993390083E-2,-1.119526863E0,1.149958138E0
8.596090095E0,-1.409847140E-1,3.640484810E-2,-1.202034950E0,1.210822045E0
8.604116066E0,-7.714742422E-2,6.900644302E-2,-1.322793961E0,1.326837396E0
8.612142037E0,-3.798902035E-3,5.345606804E-2,-1.381693363E0,1.382732271E0
8.620168008E0,9.730398655E-2,3.827095032E-2,-1.400620937E0,1.404518331E0
8.628163461E0,1.473547220E-1,2.361369133E-2,-1.396419048E0,1.404370741E0
8.636189433E0,2.272978425E-1,1.910543442E-2,-1.385840416E0,1.404486734E0
8.644215404E0,3.024334908E-1,3.205490112E-2,-1.383210182E0,1.416249957E0
8.652241375E0,2.889930606E-1,8.187556267E-2,-1.364489079E0,1.397158202E0
8.660236828E0,2.212925553E-1,1.439385414E-1,-1.271870613E0,1.298977889E0
8.668262799E0,1.618191004E-1,2.279763222E-1,-1.215538979E0,1.247274482E0
8.676288770E0,1.716028452E-1,2.712488174E-1,-1.188221931E0,1.230810634E0
8.684314741E0,2.085049748E-1,3.447496891E-1,-1.103517532E0,1.174767048E0
8.692340712E0,2.387344241E-1,4.098224640E-1,-9.612541199E-1,1.071894612E0
8.700336166E0,3.142234683E-1,4.817614555E-1,-8.305158615E-1,1.010241102E0
8.708362137E0,4.104639292E-1,5.539491177E-1,-7.420091629E-1,1.012876034E0
8.716388108E0,4.512615204E-1,6.182668209E-1,-6.262836456E-1,9.890005189E-1
8.724414079E0,3.974921703E-1,6.794497967E-1,-4.284420013E-1,8.962224055E-1
8.732440050E0,2.787708044E-1,7.659206390E-1,-2.011814117E-1,8.395365073E-1
8.740435503E0,2.217023373E-1,8.188660145E-1,-5.659294128E-2,8.502330487E-1
8.748461474E0,2.519044876E-1,7.564482689E-1,4.623985291E-2,7.986288114E-1
8.756487446E0,3.126955032E-1,7.043356895E-1,8.318996429E-2,7.751050325E-1
8.764513417E0,4.176912308E-1,6.328837872E-1,2.036762238E-2,7.585662083E-1
8.772539388E0,5.129129887E-1,5.734488964E-1,-1.841831207E-2,7.695859958E-1
8.780565359E0,7.290397882E-1,4.984915257E-1,-4.715919495E-3,8.831846092E-1
8.788560812E0,8.475598097E-1,3.755099773E-1,3.966331482E-2,9.278677452E-1
8.796586783E0,9.016959667E-1,3.209106922E-1,1.908636093E-1,9.759447762E-1
8.804612754E0,9.133471251E-1,3.732063770E-1,4.007949829E-1,1.064951919E0
8.812638725E0,9.084603786E-1,4.677960873E-1,5.847597122E-1,1.177317867E0
8.820664696E0,9.257645607E-1,5.878045559E-1,7.315502167E-1,1.318226057E0
8.828660150E0,9.582577944E-1,7.004923820E-1,8.344850540E-1,1.450969636E0
8.836686121E0,1.009043455E0,8.263046741E-1,8.576812744E-1,1.560950120E0
8.844712092E0,1.082632899E0,9.808726311E-1,8.331937790E-1,1.681789816E0
8.852738063E0,1.176553369E0,1.123319149E0,8.257474899E-1,1.824275927E0
8.860764034E0,1.183785081E0,1.186437368E0,8.305168152E-1,1.870491627E0
8.868759487E0,1.107115269E0,1.192324400E0,8.971862793E-1,1.858032538E0
8.876785458E0,9.970258474E-1,1.131576538E0,9.387445450E-1,1.776447951E0
8.884811430E0,8.507572412E-1,1.043158770E0,9.922189713E-1,1.672263911E0
8.892837401E0,6.384483576E-1,9.785051346E-1,1.073431015E0,1.586613610E0
8.900832854E0,3.717688322E-1,8.597612381E-1,1.253955841E0,1.565185836E0
8.908858825E0,1.052982807E-1,6.967861652E-1,1.539090157E0,1.692748415E0
8.916884796E0,-2.131595612E-1,4.244525433E-1,1.781684875E0,1.843908337E0
8.924910767E0,-4.561155438E-1,1.149425507E-1,1.903295517E0,1.960557830E0
8.932936738E0,-4.887602329E-1,-1.935856342E-1,1.821307182E0,1.895658676E0
8.940962709E0,-3.582975268E-1,-4.312894344E-1,1.660734177E0,1.752833620E0
8.948958163E0,-4.632556438E-2,-5.387034416E-1,1.541879654E0,1.633934002E0
8.956984134E0,2.135846615E-1,-6.019854546E-1,1.397714615E0,1.536753409E0
8.965010105E0,4.425495863E-1,-6.293501854E-1,1.153851509E0,1.386832757E0
8.973036076E0,4.371615648E-1,-6.239728928E-1,8.605890274E-1,1.149376300E0
8.981062047E0,3.163579702E-1,-6.166064739E-1,6.136932373E-1,9.256917946E-1
8.989088018E0,8.986997604E-2,-5.706629753E-1,4.990739822E-1,7.634184198E-1
8.997083471E0,-1.575904489E-1,-5.189986229E-1,4.471387863E-1,7.029419708E-1
9.005109442E0,-3.970753551E-1,-4.612104893E-1,3.812398911E-1,7.181419132E-1
9.013135414E0,-6.128085852E-1,-4.908282757E-1,3.278360367E-1,8.508367794E-1
9.021161385E0,-7.776463032E-1,-5.516338348E-1,2.704753876E-1,9.910552941E-1
9.029187356E0,-9.296775460E-1,-5.648517609E-1,2.334918976E-1,1.112598902E0
9.037213327E0,-1.004959941E0,-5.990533829E-1,1.667823792E-1,1.181789237E0
9.045208780E0,-1.063774347E0,-6.037049294E-1,8.981609344E-2,1.226434847E0
9.053234751E0,-1.191783190E0,-6.541056633E-1,-6.435680389E-2,1.361008151E0
9.061260722E0,-1.289369106E0,-7.009329796E-1,-3.743238449E-1,1.514562008E0
9.069286693E0,-1.375540853E0,-7.859847546E-1,-8.332872391E-1,1.790042540E0
9.077312664E0,-1.432934523E0,-7.841327190E-1,-1.340899467E0,2.113333114E0
9.085308118E0,-1.437131166E0,-6.289756298E-1,-1.730307102E0,2.335576803E0
9.093334089E0,-1.430681944E0,-3.727974892E-1,-2.002389908E0,2.489054868E0
9.101360060E0,-1.394844055E0,-1.648094654E-1,-2.131275654E0,2.552467044E0
9.109386031E0,-1.469497800E0,-7.352590561E-3,-2.055452347E0,2.526729545E0
9.117412002E0,-1.593771935E0,1.384067535E-2,-2.031192780E0,2.581868442E0
9.125407455E0,-1.656076670E0,-4.871845245E-2,-2.043956280E0,2.631106364E0
9.133433427E0,-1.578823924E0,-1.300063133E-1,-1.988457203E0,2.542351013E0
9.141459398E0,-1.447492957E0,-2.274818420E-1,-1.881572247E0,2.384805646E0
9.149485369E0,-1.243209600E0,-2.270228863E-1,-1.749475479E0,2.158187655E0
9.157511340E0,-1.071089745E0,-2.578775883E-1,-1.604181290E0,1.946055421E0
9.165506793E0,-1.013055325E0,-2.695939541E-1,-1.543144226E0,1.865544450E0
9.173532764E0,-9.899923205E-1,-1.770091057E-1,-1.400845528E0,1.724466645E0
9.181558735E0,-1.012711048E0,-5.586385727E-2,-1.272562027E0,1.627304074E0
9.189584706E0,-1.054697990E0,1.163592339E-1,-1.248829842E0,1.638750529E0
9.197610677E0,-1.015527248E0,2.304039001E-1,-1.396121025E0,1.741704759E0
9.205606132E0,-9.966234565E-1,2.511258125E-1,-1.709907055E0,1.995019956E0
9.213632102E0,-9.899524450E-1,2.801473141E-1,-2.066029072E0,2.308021769E0
9.221658073E0,-1.002527237E0,3.216269016E-1,-2.400399685E0,2.621149246E0
9.229684044E0,-1.010584593E0,3.211843967E-1,-2.588806629E0,2.797563297E0
9.237710015E0,-9.129048586E-1,2.483916283E-1,-2.794431210E0,2.950243967E0
9.245705469E0,-8.220311403E-1,1.918039322E-1,-2.945588589E0,3.064150140E0
9.253731439E0,-6.855601072E-1,1.820557117E-1,-3.013551712E0,3.095905500E0
9.261757411E0,-4.959646463E-1,1.567590237E-1,-3.051024437E0,3.095045143E0
9.269783382E0,-2.554574311E-1,1.594564915E-1,-3.101319790E0,3.115905857E0
9.277809353E0,-4.278206825E-2,2.217786312E-1,-3.075914383E0,3.084196063E0
9.285835324E0,1.302806735E-1,3.083286285E-1,-2.874282360E0,2.893706737E0
9.293830778E0,1.517496705E-1,3.956911564E-1,-2.637717724E0,2.671545291E0
9.301856748E0,5.177664757E-2,4.363000393E-1,-2.406929970E0,2.446701949E0
9.309882719E0,-2.740982175E-1,4.685149193E-1,-2.256000996E0,2.320382847E0
9.317908690E0,-6.554660797E-1,5.315682888E-1,-2.175442219E0,2.333398696E0
9.325934661E0,-9.757255316E-1,7.533197403E-1,-2.038523674E0,2.382248877E0
9.333960632E0,-1.410091519E0,1.078402758E0,-1.747042179E0,2.490676008E0
9.341956086E0,-1.697381616E0,1.405809641E0,-1.337443829E0,2.578014951E0
9.349982057E0,-1.907438517E0,1.719934225E0,-9.051513672E-1,2.723195628E0
9.358008028E0,-1.997293234E0,1.869533539E0,-4.970464706E-1,2.780537917E0
9.366033999E0,-2.043259621E0,1.960308790E0,-1.603403091E-1,2.836094047E0
9.374059970E0,-1.927229643E0,2.051564455E0,2.809972763E-1,2.828796613E0
9.382055423E0,-1.670631886E0,2.139901400E0,5.956153870E-1,2.779378813E0
9.390081395E0,-1.287860036E0,2.180189848E0,7.528572083E-1,2.641704984E0
9.398107366E0,-9.402874112E-1,2.106498241E0,8.273181915E-1,2.450700032E0
9.406133337E0,-6.789162159E-1,1.989037275E0,6.867609024E-1,2.211071471E0
9.414159308E0,-4.905526638E-1,1.861403704E0,4.811391830E-1,1.984177557E0
9.422185279E0,-2.646304369E-1,1.757160425E0,2.815256119E-1,1.799138321E0
9.430211250E0,-7.205069065E-2,1.735156298E0,1.831560135E-1,1.746283140E0
9.438206703E0,6.557488441E-2,1.699302197E0,1.614999771E-1,1.708218447E0
9.446232674E0,1.734572649E-1,1.674932003E0,2.470703125E-1,1.701919028E0
9.454258645E0,1.999967098E-1,1.674928665E0,4.541807175E-1,1.746901497E0
9.462284616E0,1.434742212E-1,1.671271563E0,7.518100739E-1,1.838192557E0
9.470310587E0,9.429216385E-3,1.529059887E0,1.080238342E0,1.872171980E0
9.478336558E0,-1.278545856E-1,1.324907780E0,1.415087700E0,1.942730197E0
9.486362530E0,-2.182308435E-1,1.088538170E0,1.816161156E0,2.128610202E0
9.494357983E0,-2.209223509E-1,8.769230843E-1,2.094583511E0,2.281464632E0
9.502383954E0,-1.567848921E-1,6.854267120E-1,2.131521225E0,2.244498610E0
9.510409925E0,-4.044055939E-3,5.408649445E-1,2.083994865E0,2.153041068E0
9.518435896E0,1.842526197E-1,4.798245430E-1,1.997875214E0,2.062931407E0
9.526461867E0,3.687213659E-1,4.378547668E-1,1.806338310E0,1.894869477E0
9.534487838E0,4.553658962E-1,4.218575954E-1,1.592266083E0,1.708986018E0
9.542483292E0,5.056324005E-1,4.566395283E-1,1.459774971E0,1.610939710E0
9.550509263E0,4.778909683E-1,5.001111031E-1,1.383093834E0,1.546427964E0
9.558535234E0,3.903203011E-1,5.233798027E-1,1.421072006E0,1.563880431E0
9.566561205E0,2.188110352E-1,5.142967701E-1,1.518680573E0,1.618261449E0
9.574587176E0,-4.357337952E-3,4.565696716E-1,1.701819420E0,1.762005729E0
9.582613147E0,-1.500062943E-1,3.047680855E-1,1.886690140E0,1.917025080E0
9.590639117E0,-1.422257423E-1,9.801530838E-2,2.009263992E0,2.016674727E0
9.598634571E0,-3.276276588E-2,-1.705858707E-1,1.993871689E0,2.001423806E0
9.606660542E0,1.396071911E-1,-4.976339340E-1,1.903261185E0,1.972189858E0
9.614686514E0,3.294475079E-1,-8.048778772E-1,1.775937080E0,1.977452040E0
9.622712485E0,5.094590187E-1,-1.082981944E0,1.657107353E0,2.044114273E0
9.630738456E0,6.161100864E-1,-1.409928083E0,1.561224937E0,2.192010982E0
9.638733909E0,5.687055588E-1,-1.691671491E0,1.383206367E0,2.257972165E0
9.646759880E0,4.369854927E-1,-1.894785523E0,1.245701790E0,2.309316230E0
9.654785851E0,2.413327694E-1,-2.049216747E0,1.027179718E0,2.304914089E0
9.662811822E0,1.210856438E-2,-2.112220764E0,7.284889221E-1,2.234349857E0
9.670837793E0,-1.410443783E-1,-2.103765249E0,3.624706268E-1,2.139417373E0
9.678863763E0,-2.620707750E-1,-2.031410933E0,-2.273845673E-2,2.048372160E0
9.686859218E0,-3.753111362E-1,-1.877949834E0,-4.439716339E-1,1.965875082E0
9.694885189E0,-4.607375860E-1,-1.705973983E0,-7.912864685E-1,1.936171642E0
9.702911160E0,-4.604560137E-1,-1.514819622E0,-1.247518539E0,2.015688650E0
9.710937131E0,-4.672769308E-1,-1.370007038E0,-1.637817860E0,2.185798334E0
9.718963102E0,-4.349731207E-1,-1.301103711E0,-1.962659359E0,2.394598973E0
9.726989072E0,-3.522292376E-1,-1.219051957E0,-2.173379898E0,2.516690941E0
9.734984527E0,-3.177938461E-1,-1.135261297E0,-2.226147175E0,2.519036003E0
9.743010498E0,-3.708053827E-1,-1.024480224E0,-2.074843884E0,2.343508801E0
9.751036469E0,-4.460594654E-1,-9.314188957E-1,-1.793920517E0,2.069942276E0
9.759062440E0,-6.128612757E-1,-8.109492064E-1,-1.343536854E0,1.684734055E0
9.767088410E0,-8.212509155E-1,-6.326248646E-1,-8.400115967E-1,1.334273873E0
9.775114381E0,-1.018084168E0,-4.673861265E-1,-2.555131912E-1,1.149013558E0
9.783140352E0,-1.163348198E0,-3.600916862E-1,2.340183258E-1,1.240084525E0
9.791135806E0,-1.173919320E0,-3.009252548E-1,7.040081024E-1,1.401524166E0
9.799161777E0,-1.222069621E0,-4.171432257E-1,9.931201935E-1,1.629033563E0
9.807187748E0,-1.132123947E0,-6.214176416E-1,9.925727844E-1,1.628823271E0
9.815213718E0,-9.687760472E-1,-8.441858292E-1,7.752056122E-1,1.500706662E0
9.823239689E0,-7.058022618E-1,-9.538511038E-1,4.201335907E-1,1.258769635E0
9.831265660E0,-5.036059618E-1,-9.320057631E-1,9.727096558E-2,1.063821107E0
9.839261115E0,-2.811384201E-1,-7.968666553E-1,-3.284282684E-1,9.065872298E-1
9.847287086E0,-6.779551506E-2,-5.477585793E-1,-7.874784470E-1,9.616433837E-1
9.855313056E0,9.968948364E-2,-3.237116337E-1,-1.249311447E0,1.294413499E0
9.863339027E0,1.150829792E-1,-1.103945971E-1,-1.690545559E0,1.698050454E0
9.871364998E0,7.278561592E-2,1.115753651E-1,-2.059050560E0,2.063355524E0
9.879360453E0,-4.724204540E-2,3.606791496E-1,-2.291099072E0,2.319796589E0
9.887386424E0,-2.210916281E-1,6.670944691E-1,-2.502241135E0,2.599058913E0
9.895412395E0,-3.949013352E-1,1.005091429E0,-2.532651901E0,2.753267422E0
9.903438365E0,-6.380674839E-1,1.308645248E0,-2.492595673E0,2.886644365E0
9.911464336E0,-7.848363519E-1,1.459344387E0,-2.413102627E0,2.927237337E0
9.919459790E0,-8.821245432E-1,1.491234779E0,-2.240998268E0,2.832666255E0
9.927485761E0,-8.877658844E-1,1.385151386E0,-2.105074406E0,2.671724327E0
9.935511732E0,-8.245913982E-1,1.217424870E0,-1.909042358E0,2.409671557E0
9.943537702E0,-7.110370994E-1,1.036636591E0,-1.736682892E0,2.143888207E0
9.951563673E0,-5.304641724E-1,8.997626305E-1,-1.659502029E0,1.960844720E0
9.959589645E0,-2.980075479E-1,8.174750805E-1,-1.632009983E0,1.849467651E0
9.967585099E0,-1.448371410E-1,7.996895313E-1,-1.623076439E0,1.815174446E0
9.975611070E0,-5.368322134E-2,8.268408775E-1,-1.654294968E0,1.850199872E0
9.983637041E0,1.609784365E-2,9.187097549E-1,-1.610929012E0,1.854556291E0
9.991663011E0,2.200174332E-2,1.063400507E0,-1.519626617E0,1.854877293E0
9.999688982E0,5.343049765E-2,1.203661919E0,-1.390300751E0,1.839726341E0
1.000768444E1,8.435076475E-2,1.306728363E0,-1.337546349E0,1.871813105E0
1.001571041E1,1.587455869E-1,1.289861798E0,-1.279756546E0,1.823929943E0
1.002373638E1,2.035849690E-1,1.248844862E0,-1.157188416E0,1.714685207E0
1.003176235E1,3.385797739E-1,1.248520613E0,-9.270057678E-1,1.591470916E0
1.003978832E1,4.381208420E-1,1.253015399E0,-6.276454926E-1,1.468310705E0
1.004778377E1,5.047059655E-1,1.203649521E0,-2.923870087E-1,1.337531474E0
1.005580975E1,6.001896262E-1,1.129735112E0,6.671428680E-2,1.281007341E0
1.006383572E1,6.412238479E-1,1.048182130E0,4.809522629E-1,1.319533584E0
1.007186169E1,5.992557406E-1,9.154865742E-1,1.105527878E0,1.555446881E0
1.007988766E1,6.220756173E-1,7.615454197E-1,1.712362289E0,1.974617459E0
1.008791363E1,6.447845697E-1,6.991646290E-1,2.129156113E0,2.331927115E0
1.009593960E1,5.628407001E-1,5.981190205E-1,2.457765579E0,2.591360195E0
1.010393505E1,4.563897252E-1,5.658667088E-1,2.649088860E0,2.747029031E0
1.011196102E1,3.705505133E-1,5.282249451E-1,2.676165581E0,2.752851520E0
1.011998700E1,3.255518675E-1,4.666378498E-1,2.654428482E0,2.714723829E0
1.012801297E1,2.676945925E-1,4.235448837E-1,2.519505501E0,2.568843832E0
1.013603894E1,2.427269816E-1,4.047715664E-1,2.340631485E0,2.387742063E0
1.014406491E1,1.465560198E-1,3.364760876E-1,2.136814117E0,2.168102718E0
1.015206036E1,4.519355297E-2,2.645604610E-1,1.917455673E0,1.936148484E0
1.016008633E1,-1.018574238E-1,1.847717762E-1,1.567548752E0,1.581684113E0
1.016811230E1,-2.174872160E-1,1.431798935E-2,1.321498871E0,1.339352440E0
1.017613828E1,-3.970856667E-1,-1.437563896E-1,1.203226089E0,1.275184672E0
1.018416425E1,-7.097051144E-1,-8.072686195E-2,1.200654984E0,1.397057825E0
1.019219022E1,-9.975671768E-1,1.023795605E-1,1.214930534E0,1.575334266E0
1.020018567E1,-1.251959562E0,2.677347660E-1,1.170803070E0,1.734896100E0
1.020821164E1,-1.571353793E0,3.397717476E-1,1.112920761E0,1.955297983E0
1.021623761E1,-1.911725402E0,2.695770264E-1,1.047125816E0,2.196323806E0
1.022426358E1,-2.247898579E0,6.803083420E-2,1.073567390E0,2.492031933E0
1.023228956E1,-2.548832417E0,-1.375069618E-1,1.470119476E0,2.945624913E0
1.024028501E1,-2.749850512E0,-3.350244761E-1,1.933390617E0,3.378153122E0
1.024831098E1,-2.659911156E0,-6.140010357E-1,2.188831329E0,3.499015178E0
1.025633695E1,-2.155057669E0,-1.043504953E0,2.452126503E0,3.427258457E0
1.026436292E1,-1.373697400E0,-1.480993986E0,2.691862106E0,3.365487979E0
1.027238889E1,-4.053540230E-1,-1.770670176E0,2.842579842E0,3.373402572E0
1.028041486E1,4.640824795E-1,-2.004858971E0,2.807364464E0,3.480822787E0
1.028841032E1,1.161247015E0,-2.276792049E0,2.508483887E0,3.581168535E0
1.029643629E1,1.453596592E0,-2.567971230E0,2.090363503E0,3.616218862E0
1.030446226E1,1.406250954E0,-2.754835606E0,1.558033943E0,3.463254355E0
1.031248823E1,9.957451820E-1,-2.727566719E0,1.077606201E0,3.097154145E0
1.032051420E1,2.855637074E-1,-2.553672791E0,6.818799973E-1,2.658524343E0
1.032850966E1,-5.873377323E-1,-2.089313745E0,3.852529526E-1,2.204227161E0
1.033653563E1,-1.438591957E0,-1.495597720E0,-1.283159256E-1,2.079140288E0
1.034456160E1,-2.129585743E0,-1.084393382E0,-6.573581696E-1,2.478540741E0
1.035258757E1,-2.459596395E0,-7.210872769E-1,-1.366141796E0,2.904466336E0
1.036061354E1,-2.375008821E0,-5.243190527E-1,-1.611326694E0,2.917524822E0
1.036860899E1,-2.374883652E0,-6.902858019E-1,-1.673692226E0,2.986270670E0
1.037663496E1,-2.161531925E0,-4.537540674E-1,-1.508423328E0,2.674594166E0
1.038466093E1,-1.966021538E0,-2.312779427E-1,-1.523559093E0,2.497991690E0
1.039268691E1,-1.577782154E0,1.508694887E-1,-1.408287525E0,2.120243354E0
1.040071288E1,-1.320663214E0,5.216386318E-1,-1.135876179E0,1.818370941E0
1.040870833E1,-1.260429144E0,5.248854160E-1,-8.125762939E-1,1.588856998E0
1.041673430E1,-1.590847611E0,-1.636462212E-1,-6.194915771E-1,1.715035283E0
1.042476027E1,-2.105789185E0,-9.521179199E-1,-7.489843369E-1,2.429373203E0
1.043278624E1,-2.869880676E0,-1.704515100E0,-9.828805923E-1,3.479603581E0
1.044081221E1,-2.607743979E0,-1.744954586E0,-1.574167728E0,3.510441454E0
1.044883818E1,-1.933486581E0,-1.673566461E0,-2.080548286E0,3.296646209E0
1.045686416E1,-1.257811666E0,-1.700676918E0,-2.678941727E0,3.413373835E0
1.046485961E1,-5.840682983E-1,-1.593774676E0,-3.055291653E0,3.495148148E0
1.047288558E1,1.446151137E-1,-1.470099092E0,-3.240866184E0,3.561645476E0
1.048091155E1,8.235199451E-1,-1.397822618E0,-3.125809193E0,3.521757556E0
1.048893752E1,1.572419167E0,-2.168463469E0,-4.799623013E0,5.496464037E0
1.049696349E1,1.338001609E0,-2.347115040E0,-3.489523411E0,4.413158840E0
1.050495895E1,1.391151905E0,-1.263971090E0,-2.535565376E0,3.156266516E0
1.051298492E1,1.739419341E0,1.459201574E-1,-1.721230984E0,2.451429876E0
1.052101089E1,1.856149554E0,1.326755643E0,-1.782944679E0,2.895593796E0
1.052903686E1,2.593482256E0,2.469334126E0,-1.527425766E0,3.893172319E0
1.053706283E1,5.967320919E0,5.124779224E0,4.206892967E0,8.920214655E0
1.054508880E1,5.550650597E0,5.432757378E0,3.195636749E0,8.398611135E0
1.055308426E1,2.471410036E0,3.530179024E0,-1.105957985E0,4.448952076E0
1.056111023E1,6.794339418E-2,1.272045970E0,-3.056992531E0,3.311785106E0
1.056913620E1,-1.572531700E0,-1.014624834E-1,-3.545865059E0,3.880246075E0
1.057716217E1,-2.524919987E0,-3.222340345E-1,-2.828624249E0,3.805281967E0
1.058518814E1,-2.727261543E0,3.230823278E-1,-1.285407066E0,3.032261374E0
1.059318360E1,-2.547696114E0,1.451430082E0,3.291568756E-1,2.950550630E0
1.060120957E1,-2.610381603E0,2.306883335E0,1.106287003E0,3.655088750E0
1.060923554E1,-2.353051186E0,2.242496490E0,5.489645004E-1,3.296513676E0
1.061726151E1,-2.144298553E0,1.725472450E0,4.222679138E-2,2.752645013E0
1.062528748E1,-2.073517799E0,1.134571552E0,-1.037063599E-1,2.365900184E0
1.063328293E1,-2.419578314E0,6.010069847E-1,4.059028625E-2,2.493434616E0
1.064130890E1,-3.105611563E0,1.454262733E-1,-5.145988464E-1,3.151314639E0
1.064933487E1,-3.335055828E0,3.644711971E-1,-1.304806232E0,3.599716091E0
1.065736084E1,-2.676439762E0,9.723205566E-1,-1.625710487E0,3.278974177E0
1.066538682E1,-1.880601406E0,1.384065866E0,-1.781249523E0,2.936860541E0
1.067338227E1,1.258552074E-1,1.682452202E0,-2.526069641E0,3.037682139E0
1.068140824E1,2.876123428E0,2.218060493E0,-2.608584404E0,4.471754792E0
1.068943421E1,2.117567062E0,1.631644964E0,-2.153723240E0,3.432911206E0
1.069746018E1,-1.050994396E0,9.620058537E-1,-1.605354309E0,2.146440528E0
1.070548615E1,-2.121036530E0,1.207837343E0,-1.281902313E0,2.756980331E0
1.071351212E1,-1.959765196E0,1.528366804E0,-8.130455017E-1,2.614885791E0
1.072150758E1,-1.942151070E0,1.393631220E0,-5.477151871E-1,2.452376537E0
1.072953355E1,-1.692768574E0,1.347544193E0,-2.327814102E-1,2.176126830E0
1.073755952E1,-1.199558496E0,1.025453568E0,4.472389221E-1,1.640279933E0
1.074558549E1,-1.641170979E0,1.225994825E0,1.145422935E0,2.347019215E0
1.075361146E1,-1.202756882E0,7.688934803E-1,8.160152435E-1,1.644293824E0
1.076163743E1,-1.166930199E0,2.071223259E-1,8.405904770E-1,1.453003130E0
1.076963289E1,-1.308758736E0,-2.764201164E-2,8.081827164E-1,1.538431933E0
1.077765886E1,-1.530412674E0,-8.401393890E-2,8.521618843E-1,1.753682175E0
1.078568483E1,-1.708244324E0,-8.926534653E-2,1.657916069E0,2.382173936E0
1.079371080E1,-9.245729446E-1,1.972491741E-1,4.455980301E0,4.555162215E0
1.080173677E1,-1.630262852E0,4.335019588E-1,1.244028091E0,2.096016891E0
1.080973223E1,-2.230940819E0,4.031414986E-1,2.144432068E-1,2.277192546E0
1.081775820E1,-1.567079067E0,2.716565132E-2,-3.556008339E-1,1.607148633E0
1.082578417E1,-1.307255268E0,1.124491692E-1,-7.512626648E-1,1.511938075E0
1.083381014E1,-1.508933067E0,2.654774189E-1,-8.772344589E-1,1.765473749E0
1.084183611E1,-1.487857342E0,2.150909901E-1,-4.442420006E-1,1.567588772E0
1.084983156E1,-1.542504311E0,-1.438760757E-2,1.770057678E-1,1.552693657E0
1.085785753E1,-1.736828327E0,-2.634770870E-1,8.791165352E-1,1.964392704E0
1.086588351E1,-1.782086849E0,-3.335111141E-1,1.520971298E0,2.366519996E0
1.087390948E1,-1.624942780E0,-3.524141312E-1,2.092061043E0,2.672331223E0
1.088193545E1,-1.370817184E0,-5.998885632E-1,2.676513672E0,3.066387366E0
1.088993090E1,-1.138014793E0,-9.618945122E-1,2.920619011E0,3.278770216E0
1.089795687E1,-1.027604580E0,-1.269877434E0,2.830841541E0,3.268367131E0
1.090598284E1,-1.016984940E0,-1.278379202E0,2.459192276E0,2.952310689E0
1.091400881E1,-8.138461113E-1,-1.247197151E0,1.968914986E0,2.468698533E0
1.092203478E1,-3.206057549E-1,-1.249924421E0,1.396768570E0,1.901594475E0
1.093006075E1,7.565450668E-2,-1.328662872E0,5.081777573E-1,1.424539668E0
1.093808673E1,-7.028913498E-2,-1.243240356E0,-5.256891251E-2,1.246334882E0
1.094608218E1,8.131537437E-1,-1.160649538E0,-1.073482037E0,1.777832963E0
1.095410815E1,1.008858204E0,-1.355290413E0,-1.906617641E0,2.547508157E0
1.096213412E1,1.049891472E0,-1.695060015E0,-2.356189251E0,3.086604662E0
1.097016009E1,1.218765736E0,-1.661746621E0,-2.314789772E0,3.099200452E0
1.097818606E1,2.549566507E0,-4.273663998E0,-1.994452953E0,5.361187921E0
1.098621203E1,2.087986946E0,-5.611145973E0,-1.874409676E0,6.273600262E0
1.099420749E1,3.174862862E-1,-4.592628956E0,-1.994535923E0,5.017091968E0
1.100223346E1,-3.099980354E-1,-2.115752935E0,-1.327280998E0,2.516780506E0
1.101025943E1,-8.264346123E-1,-1.237440109E-2,-6.535105705E-1,1.053671372E0
1.101828540E1,-1.114225388E-1,9.155786037E-1,-6.541562080E-1,1.130760588E0
1.102631137E1,2.814903259E-1,7.872514725E-1,-6.125121117E-1,1.036423066E0
1.103433734E1,-1.039853096E-1,8.163666725E-2,-9.123048782E-1,9.218338684E-1
1.104236331E1,-3.257799149E-1,-7.330498695E-1,-1.849814177E0,2.016260686E0
1.105035877E1,-1.951770782E-1,-1.079503536E0,-2.671106339E0,2.887599530E0
1.105838474E1,-5.786514282E-2,-1.265883207E0,-3.138130188E0,3.384327074E0
1.106641071E1,3.007249832E-1,-1.884081125E0,-3.802260637E0,4.254101921E0
1.107443668E1,1.081912994E0,-2.879384041E0,-4.141537666E0,5.158848944E0
1.108246265E1,1.373932362E0,-3.661221266E0,-3.643219948E0,5.344649930E0
1.109048862E1,1.884179115E0,-4.029712200E0,-2.660997391E0,5.183591271E0
1.109848408E1,1.987843037E0,-3.952423573E0,-2.007262230E0,4.858217131E0
1.110651005E1,1.753506660E0,-3.785575867E0,-2.013626575E0,4.632500646E0
1.111453602E1,1.792038441E0,-3.730883121E0,-1.956414104E0,4.578039622E0
1.112256199E1,1.649617672E0,-3.892200470E0,-1.711269736E0,4.560581879E0
1.113058796E1,1.449085236E0,-4.218340397E0,-1.458278656E0,4.692634693E0
1.113858341E1,1.723049164E0,-4.565115929E0,-1.146231055E0,5.012287651E0
1.114660939E1,2.619792461E0,-5.655963898E0,-9.872785211E-1,6.310939631E0
1.115463536E1,3.931522369E-2,-5.034970760E0,-1.610810757E0,5.286509958E0
1.116266133E1,6.769075394E-1,-4.243319035E0,-1.673642874E0,4.611403335E0
1.117068730E1,4.117708206E-1,-3.797473431E0,-1.383788347E0,4.062662902E0
1.117868275E1,-8.312892914E-2,-3.970396519E0,-6.520663500E-1,4.024443994E0
1.118670872E1,-5.336303711E-1,-3.776726246E0,1.008902416E-1,3.815573528E0
1.119473469E1,-6.542787552E-1,-3.576056242E0,4.243699014E-1,3.660102287E0
1.120276067E1,-3.290414810E-1,-3.628896952E0,2.339414358E-1,3.651286072E0
1.121078664E1,-3.374652863E-1,-3.807978392E0,-6.976327896E-1,3.886035738E0
1.121878209E1,-3.426837921E-2,-3.982115030E0,-1.240937114E0,4.171131664E0
1.122680806E1,1.113605499E-1,-3.872069836E0,-1.710358381E0,4.234460034E0
1.123483403E1,-5.439710617E-1,-3.461672068E0,-2.255475521E0,4.167283029E0
1.124286000E1,-1.258937836E0,-3.237083197E0,-2.562603712E0,4.316314386E0
1.125088597E1,-1.623515129E0,-3.145866156E0,-2.058146477E0,4.094904414E0
1.125888143E1,-2.326844215E0,-2.620973110E0,-1.650465846E0,3.873982648E0
1.126690740E1,-3.052278519E0,-2.168691635E0,-8.613291979E-1,3.842071778E0
1.127493337E1,-3.749328613E0,-2.345583916E0,1.314139366E-1,4.424533713E0
1.128295934E1,-3.837828636E0,-2.605478287E0,7.936094999E-1,4.706087736E0
1.129098531E1,-3.860241890E0,-2.476183176E0,8.156195879E-1,4.658131158E0
1.129901128E1,-4.164395332E0,-1.886887074E0,2.276473045E-1,4.577592665E0
1.130700674E1,-3.948779106E0,-1.381291866E0,-2.804818153E-1,4.192790681E0
1.131503271E1,-3.502897263E0,-9.361109734E-1,9.128146172E-1,3.738960218E0
1.132305868E1,-2.492050171E0,-7.376468182E-1,4.632010937E0,5.311305132E0
1.133108465E1,-2.512647629E0,-1.714828491E0,1.763247132E0,3.516116510E0
1.133911062E1,-3.032442093E0,-3.270954847E0,-1.123316288E-1,4.461778687E0
1.134713659E1,-3.428971291E0,-4.430708885E0,-1.231032133E0,5.736241404E0
1.135513204E1,-3.100216866E0,-4.554921627E0,-7.402267456E-1,5.559369683E0
1.136315802E1,-2.393614769E0,-4.184486866E0,-6.207749844E-1,4.860522973E0
1.137118399E1,-2.216165543E0,-3.868480921E0,-8.399295807E-1,4.536740685E0
1.137920996E1,-2.120104790E0,-4.025103569E0,-1.114713669E0,4.683896842E0
1.138723593E1,-1.793766022E0,-4.187312126E0,-5.629851818E-1,4.590003453E0
1.139526190E1,-1.790634155E0,-4.007994652E0,2.433423996E-1,4.396544931E0
1.140328787E1,-2.136872292E0,-3.986340046E0,2.112812996E-1,4.527888022E0
1.141128332E1,-2.163115501E0,-4.306076050E0,-3.274030685E-1,4.829964015E0
1.141930930E1,-2.251837730E0,-4.577160835E0,-4.312660694E-1,5.119293398E0
1.142733527E1,-2.782351971E0,-4.362593174E0,-3.536252975E-1,5.186400731E0
1.143536124E1,-2.996752262E0,-4.101170063E0,3.988528252E-2,5.079538448E0
1.144338721E1,-3.268987179E0,-4.511783123E0,2.401227951E-1,5.576748433E0
1.145141318E1,-3.728360653E0,-4.819273472E0,2.268066406E-1,6.097336403E0
1.145943915E1,-4.239362717E0,-4.810580730E0,5.135216713E-1,6.432541311E0
1.146746512E1,-4.790886879E0,-4.495755672E0,5.788204670E-1,6.595411230E0
1.147549109E1,-5.186051846E0,-3.904419899E0,3.280787468E-1,6.499789547E0
1.148351706E1,-5.826116085E0,-2.854246140E0,-1.987237930E-1,6.490750404E0
1.149154303E1,-6.135283947E0,-1.395487309E0,-7.043092251E-1,6.331283079E0
1.149956900E1,-5.971261501E0,-2.853393555E-1,-1.583936214E0,6.184354162E0
1.150756446E1,-5.858541965E0,9.104027748E-1,-2.860107899E0,6.582671522E0
1.151559043E1,-6.139664650E0,1.777534485E0,-3.656619787E0,7.363829108E0
1.152361640E1,-7.074080467E0,2.475740433E0,-4.083430290E0,8.535004867E0
1.153164237E1,-8.053297043E0,2.046797276E0,-4.731332302E0,9.561928555E0
1.153966834E1,-9.483893394E0,2.366362095E0,-4.863072395E0,1.091757192E1
1.154769431E1,-1.135433865E1,3.579844713E0,-4.821814060E0,1.284469482E1
1.155572028E1,-1.251245689E1,4.506758690E0,-5.075698853E0,1.423499808E1
1.156374626E1,-1.277472115E1,5.313904762E0,-6.148424625E0,1.514048247E1
1.157177223E1,-1.278454876E1,6.231748104E0,-5.607504368E0,1.528801742E1
1.157979820E1,-1.212640381E1,6.692771912E0,-5.699628830E0,1.497760441E1
1.158782417E1,-1.032232285E1,6.343809605E0,-6.196965694E0,1.360869770E1
1.159585014E1,-9.282257080E0,6.134129047E0,-6.313015461E0,1.279226328E1
1.160387611E1,-6.780794621E0,6.866233826E0,-6.480196476E0,1.162399626E1
1.161190208E1,-4.183369160E0,7.039028645E0,-5.551349640E0,9.892723822E0
1.161989754E1,-1.934745789E0,6.066363811E0,-5.641301155E0,8.506955383E0
1.162792351E1,-3.964467049E-1,4.251151085E0,-6.304512024E0,7.614218765E0
1.163594948E1,3.327250481E-1,2.342352867E0,-6.665065289E0,7.072511450E0
1.164397545E1,-7.358164787E-1,5.284185410E-1,-6.008793831E0,6.076697734E0
1.165200142E1,-4.485416412E-1,-5.748476982E-1,-5.085509777E0,5.137513910E0
1.166002739E1,-4.873895645E-1,-1.421039104E0,-5.760467529E0,5.953140926E0
1.166805336E1,6.877012253E-1,-1.249376774E0,-6.141137123E0,6.304557119E0
1.167604882E1,1.625538349E0,-8.951487541E-1,-6.150073051E0,6.423944641E0
1.168398323E1,2.110271931E0,-1.239818096E0,-6.529219627E0,6.972883584E0
1.169200921E1,3.465982437E0,-1.243009567E0,-6.357640266E0,7.346951531E0
1.170003518E1,4.915385246E0,-8.641438484E-1,-5.942127228E0,7.759937674E0
1.170806115E1,5.531150341E0,-5.427570343E-1,-5.289359093E0,7.672387432E0
1.171608712E1,1.144115829E1,-4.871818542E0,-7.825546741E0,1.469264785E1
1.172411309E1,1.388779545E1,-8.519443512E0,-5.084369659E0,1.706758902E1
1.173213906E1,1.114690590E1,-7.195420265E0,-2.688223839E0,1.353713896E1
1.174016503E1,8.745893478E0,-2.746716499E0,-2.465670586E0,9.492872890E0
1.174819100E1,6.678935051E0,1.030195475E0,-2.949549198E0,7.373555221E0
1.175609491E1,4.212228775E0,3.346797943E0,-3.444847107E0,6.388340889E0
1.176412088E1,2.085009098E0,4.668776035E0,-3.444314003E0,6.165065414E0
1.177214685E1,1.077860355E0,5.680997849E0,-3.450537205E0,6.733626549E0
1.178017282E1,1.398066044E0,6.122008801E0,-4.088916302E0,7.493518328E0
1.178819879E1,1.211477757E0,5.797873974E0,-5.014701366E0,7.760815084E0
1.179622476E1,8.399105072E-2,4.920912743E0,-5.224757671E0,7.177780259E0
1.180425073E1,-1.121555328E0,2.677609205E0,-5.333540916E0,6.072407769E0
1.181227670E1,-1.982137680E0,2.292420864E0,-2.524337053E0,3.944152730E0
1.182027216E1,-3.023080826E0,6.536626816E-1,-1.016430378E0,3.255675551E0
1.182829813E1,-3.635836601E0,-2.460153103E-1,-5.523266792E-1,3.685769402E0
1.183632410E1,-3.307822227E0,5.528154373E-1,3.842808008E-1,3.375642832E0
1.184435007E1,-2.964841843E0,1.410745621E0,4.621458054E-1,3.315730554E0
1.185237604E1,-1.363018036E0,2.388071775E0,-5.249811411E-1,2.799341024E0
1.186040201E1,-1.414664268E0,1.708725333E0,-2.591818094E0,3.411530198E0
1.186842798E1,-1.452770233E-1,1.348079443E0,1.621301651E0,2.113537944E0
1.187645395E1,7.874488831E-1,2.256329060E-1,1.614692211E-1,8.349001503E-1
1.188447992E1,5.185651779E-1,-1.143424511E-1,-1.998029947E0,2.067391523E0
1.189250589E1,-3.841228485E-1,1.022428393E0,-1.930020094E0,2.217631111E0
1.190053186E1,6.191864014E-1,2.042465448E0,-1.742171764E0,2.755035275E0
1.190852732E1,2.407050133E0,2.054855585E0,-3.175746679E0,4.483490692E0
1.191655329E1,2.779314518E0,1.288802624E0,-5.450363159E0,6.252364350E0
1.192457926E1,2.561351776E0,-8.125162125E-2,-6.004930019E0,6.528882698E0
1.193260523E1,1.404270172E0,-7.318789959E-1,-4.735501766E0,4.993255307E0
1.194063120E1,8.131289482E-1,-5.827279091E-1,-3.551825523E0,3.690015590E0
1.194865717E1,2.067736626E0,-5.137426853E-1,-3.906468630E0,4.449714986E0
1.195668314E1,2.976557732E0,-2.958433628E-1,-4.828516960E0,5.679964371E0
1.196470912E1,3.042642117E0,1.283478737E-1,-4.650440216E0,5.558843264E0
1.197264354E1,3.038208008E0,7.848068476E-1,-5.109528065E0,5.996157664E0
1.198066951E1,3.059525013E0,1.693856120E0,-7.011485100E0,7.835225917E0
1.198869548E1,4.791708469E0,1.357872725E0,-8.544424057E0,9.889968193E0
1.199669093E1,5.951191425E0,1.053345919E0,-8.285769463E0,1.025573950E1
1.200471690E1,6.636035919E0,-1.667397022E-1,-7.984264374E0,1.038331606E1
1.201274287E1,7.617225647E0,-1.242060900E0,-4.537388325E0,8.952805965E0
1.202076884E1,4.074035645E0,-1.264938235E0,-3.057908297E0,5.248679674E0
1.202879481E1,2.250574589E0,-4.280953407E-1,-1.842772245E0,2.940095432E0
1.203682079E1,4.311771393E-1,-1.119418144E-1,-8.728475571E-1,9.799528321E-1
1.204484676E1,2.688384533E0,-1.504157662E0,1.207132101E0,3.308635607E0
1.205287273E1,7.817783356E-1,-2.267500877E0,2.723288536E0,3.628916925E0
1.206089870E1,-1.780921936E0,-1.879493952E0,4.555535316E0,5.239950618E0
1.206892467E1,-4.871905327E0,-3.177750826E0,6.946781158E0,9.060426606E0
1.207692012E1,-2.529124260E0,-2.164916039E0,3.699117661E0,4.976625608E0
1.208494609E1,-2.565784454E-1,-2.715774536E0,1.229725480E0,2.992238056E0
1.209297207E1,2.018054008E0,-3.678999901E0,-3.731766939E-1,4.212700214E0
1.210099804E1,3.625112534E0,-4.323531628E0,-1.899755239E0,5.953439055E0
1.210902401E1,4.022470474E0,-4.070703030E0,-2.936101198E0,6.432074480E0
1.211704998E1,3.202736855E0,-3.747261524E0,-3.673480988E0,6.147678819E0
1.212507595E1,2.101922035E0,-3.472903728E0,-2.835585833E0,4.951735409E0
1.213307140E1,9.822425842E-1,-3.792740107E0,-1.169573784E0,4.088713838E0
1.214109737E1,1.510605335E0,-3.374041080E0,7.674651146E-1,3.775590602E0
1.214912335E1,2.862802505E0,-3.497937679E0,2.007792234E0,4.945951461E0
1.215714932E1,3.701589108E0,-3.912871122E0,2.426114321E0,5.907482801E0
1.216517529E1,3.299355984E0,-4.588674545E0,2.401360035E0,6.140701426E0
1.217320126E1,2.919424534E0,-5.360145569E0,1.804069638E0,6.364657680E0
1.218122723E1,3.822742462E0,-5.980591774E0,1.970787406E0,7.366467328E0
1.218922268E1,4.393355370E0,-6.169711590E0,1.909004331E0,7.810967292E0
1.219724865E1,4.419254303E0,-5.703367710E0,1.242258310E0,7.321298897E0
1.220527463E1,2.802668571E0,-5.458429813E0,-9.153389931E-2,6.136593974E0
1.221330060E1,-9.584045410E-1,-5.583381176E0,-6.286566257E-1,5.699815240E0
1.222132657E1,-4.343070984E0,-7.217942238E0,-3.374120474E0,9.074450104E0
1.222935254E1,-5.224895000E0,-8.453569412E0,-6.565268993E0,1.191071453E1
1.223734799E1,-6.269756317E0,-9.651384354E0,-7.344887257E0,1.365307412E1
1.224537396E1,-6.572869301E0,-9.065816879E0,-6.112929344E0,1.275772518E1
1.225339993E1,-3.536391735E0,-6.278917789E0,-4.561389923E0,8.528607925E0
1.226142590E1,-2.336597443E0,-3.370051861E0,-1.793283224E0,4.475801814E0
1.226945188E1,-6.150736332E0,-4.105855942E0,-1.880838633E0,7.630672605E0
1.227747784E1,-7.250325203E0,-3.683530807E0,-6.718051434E-1,8.160081918E0
1.228547330E1,-8.305103302E0,-3.364031315E0,-3.710575104E-1,8.968228990E0
1.229349927E1,-8.496186256E0,-4.955000877E0,-6.457829475E-1,9.856685559E0
1.230152524E1,-7.708379269E0,-5.571408749E0,-6.238532066E-1,9.531468891E0
1.230955121E1,-6.674426079E0,-4.836736679E0,-8.817226887E-1,8.289717732E0
1.231757718E1,-4.868232727E0,-4.046049118E0,-1.042021751E0,6.415295214E0
1.232560315E1,-3.259352207E0,-3.374345779E0,-1.212566853E0,4.845606734E0
1.233362913E1,-1.523480892E0,-2.354600906E0,-1.113764048E0,3.017550300E0
1.234162458E1,-3.113679886E-1,-1.581463814E0,-8.112413883E-1,1.804464023E0
1.234965055E1,4.860482216E-1,-9.498286247E-1,-4.142608643E-1,1.144565137E0
1.235767652E1,1.128268242E0,-3.768143654E-1,-2.038607597E-1,1.206870955E0
1.236570249E1,1.704919338E0,5.491352081E-2,-7.252788544E-2,1.707344646E0
1.237363691E1,2.014795542E0,3.601570129E-1,3.403186798E-2,2.047015466E0
1.238166288E1,2.374544859E0,7.802700996E-1,-7.566452026E-2,2.500601895E0
1.238968885E1,2.552348852E0,1.197822094E0,-1.362884045E-1,2.822735723E0
1.239771483E1,2.684606075E0,1.540330887E0,-1.053502560E-1,3.096906149E0
1.240571028E1,2.755599499E0,1.787284374E0,-8.334207535E-2,3.285522779E0
1.241373625E1,2.745808601E0,1.929163933E0,-8.884835243E-2,3.356937948E0
1.242176222E1,2.725616932E0,2.069513798E0,-7.344031334E-2,3.423049590E0
1.242978819E1,2.747438908E0,2.250503063E0,-9.635829926E-2,3.552811494E0
1.243781416E1,2.806797981E0,2.285074711E0,-1.455206871E-1,3.622272438E0
1.244584013E1,2.822354794E0,2.267092705E0,-1.506006718E-1,3.623268756E0
1.245383559E1,2.797992706E0,2.170768261E0,-8.246517181E-2,3.542287189E0
1.246186156E1,2.730228901E0,2.040113926E0,-4.189443588E-2,3.408514314E0
1.246988753E1,2.595246553E0,1.882170677E0,4.549312592E-2,3.206234669E0
1.247791350E1,2.373664856E0,1.730891705E0,1.813983917E-1,2.943327423E0
1.248593947E1,2.041462183E0,1.576844692E0,3.823637962E-1,2.607721055E0
1.249396544E1,1.699645996E0,1.433965683E0,5.527970791E-1,2.291427220E0
1.250199141E1,1.293997765E0,1.278075218E0,7.442803383E-1,1.965161495E0
1.251001738E1,1.060461044E0,1.142182827E0,8.884491920E-1,1.794018173E0
1.251804336E1,8.462214470E-1,1.030880928E0,1.054400206E0,1.700166468E0
1.252603881E1,6.800327301E-1,9.632854462E-1,1.103266954E0,1.614794519E0
1.253406478E1,4.615793228E-1,9.081573486E-1,1.130611777E0,1.521869979E0
1.254209075E1,3.753075600E-1,8.437786102E-1,1.093566656E0,1.431330199E0
1.255011672E1,5.359177589E-1,6.887469292E-1,1.023655653E0,1.345158382E0
1.255814269E1,6.207160950E-1,5.828232765E-1,8.527601957E-1,1.205060743E0
1.256616866E1,5.012960434E-1,4.738802910E-1,6.063699722E-1,9.184469481E-1
1.257419464E1,1.839957237E-1,4.171795845E-1,3.861801624E-1,5.975184934E-1
1.258219009E1,-3.134107590E-1,2.609248161E-1,1.831839085E-1,4.470619731E-1
1.259021606E1,-8.227486610E-1,1.483950615E-1,1.878356934E-2,8.362351798E-1
1.259824203E1,-1.267235756E0,-1.318454742E-2,-1.215624809E-1,1.273121255E0
1.260626800E1,-1.728101730E0,-2.562456131E-1,-2.344951630E-1,1.762664286E0
1.261429397E1,-2.110022068E0,-4.884662628E-1,-3.136818409E-1,2.188421512E0
1.262231994E1,-2.330590725E0,-5.904927254E-1,-4.270756245E-1,2.441869852E0
1.263031540E1,-2.540348530E0,-7.948799133E-1,-4.781904221E-1,2.704416907E0
1.263834137E1,-2.565474510E0,-9.500136375E-1,-5.750632286E-1,2.795511240E0
1.264636734E1,-2.489770889E0,-1.034358501E0,-6.745989323E-1,2.779197782E0
1.265439331E1,-2.213858128E0,-1.109507561E0,-8.074486256E-1,2.604639729E0
1.266241928E1,-1.978455544E0,-1.239714622E0,-1.015106678E0,2.545902640E0
1.267044525E1,-1.932010651E0,-1.337409973E0,-1.236844778E0,2.655393680E0
1.267847122E1,-2.019332886E0,-1.491390705E0,-1.443517208E0,2.895806186E0
1.268646668E1,-2.252501965E0,-1.692288399E0,-1.615088701E0,3.247478505E0
1.269449265E1,-2.378702641E0,-1.787903786E0,-1.806478500E0,3.481119184E0
1.270251862E1,-2.560199738E0,-2.023022175E0,-2.072071791E0,3.865323133E0
1.271054459E1,-2.830802917E0,-2.337667942E0,-2.320581675E0,4.343182689E0
1.271857056E1,-3.173182487E0,-2.686561108E0,-2.504696369E0,4.853885205E0
1.272659653E1,-3.529414654E0,-3.086620808E0,-2.627284288E0,5.374627293E0
1.273462250E1,-3.793329239E0,-3.311066151E0,-2.719110012E0,5.722417761E0
1.274264847E1,-3.733619213E0,-3.391389847E0,-2.741554976E0,5.740867635E0
1.275067445E1,-3.266727448E0,-3.321229458E0,-2.735060215E0,5.402094752E0
1.275866990E1,-2.481516838E0,-2.922978878E0,-2.650222540E0,4.661052547E0
1.276669587E1,-1.553088665E0,-2.486978531E0,-2.611193180E0,3.926254760E0
1.277472184E1,-6.325240135E-1,-1.963653088E0,-2.560145140E0,3.287911680E0
1.278274781E1,1.568617821E-1,-1.430450439E0,-2.414946556E0,2.811184972E0
1.279077378E1,5.068244934E-1,-7.820172310E-1,-2.152239799E0,2.345326879E0
1.279879975E1,8.733611107E-1,-5.549860001E-2,-1.806299686E0,2.007126872E0
1.280682572E1,1.060302734E0,4.681224823E-1,-1.455979109E0,1.860982459E0
1.281485170E1,1.130078316E0,7.657442093E-1,-1.097337484E0,1.751453896E0
1.282284715E1,1.248540878E0,8.142337799E-1,-8.112292290E-1,1.697033834E0
1.283087312E1,1.398097038E0,7.635388374E-1,-5.696494579E-1,1.691794133E0
1.283889909E1,1.608950377E0,6.629538536E-1,-2.722733021E-1,1.761352286E0
1.284692506E1,1.901568413E0,4.894061089E-1,-1.070690155E-2,1.963567011E0
1.285495103E1,2.307092190E0,2.242007256E-1,1.127793789E-1,2.320702378E0
1.286297700E1,2.679462194E0,-1.616840363E-1,2.401981354E-1,2.695061135E0
1.287100297E1,2.850405216E0,-6.312537193E-1,2.930009365E-1,2.934133723E0
1.287902894E1,2.899574757E0,-1.049201012E0,2.830483913E-1,3.096525944E0
1.288702440E1,2.806811333E0,-1.443813801E0,1.799981594E-1,3.161516643E0
1.289505037E1,2.809275627E0,-1.639244080E0,-1.009900570E-1,3.254128100E0
1.290307634E1,2.642480612E0,-1.676362038E0,-2.269985676E-1,3.137582161E0
1.291110231E1,2.303069592E0,-1.688230038E0,-4.844675064E-1,2.896369964E0
1.291912828E1,1.969417334E0,-1.551832199E0,-8.719921112E-1,2.654648385E0
1.292715425E1,1.631469965E0,-1.419928551E0,-1.019620657E0,2.391133125E0
1.293514971E1,1.116259098E0,-1.226521492E0,-1.218077898E0,2.057693639E0
1.294317568E1,8.547730446E-1,-8.897700310E-1,-7.511463165E-1,1.444488994E0
1.295120165E1,6.974005699E-1,-7.791342735E-1,-1.653592587E-1,1.058660217E0
1.295922762E1,6.543202400E-1,-8.741264343E-1,5.585451126E-1,1.226460208E0
1.296725359E1,5.983095169E-1,-9.867095947E-1,1.059911013E0,1.566838044E0
1.297524905E1,1.128916264E0,-9.583225250E-1,1.278867722E0,1.956613565E0
1.298327502E1,1.625685215E0,-7.647824287E-1,1.589987636E0,2.399125937E0
1.299130099E1,1.877744913E0,-8.322629929E-1,2.274842024E0,3.064880729E0
1.299932696E1,2.129906178E0,-9.259843826E-1,2.704141617E0,3.564593846E0
1.300735293E1,2.587202072E0,-6.106119156E-1,3.043100357E0,4.040658518E0
1.301537890E1,3.027791500E0,-4.197764397E-1,3.011028290E0,4.290690503E0
1.302340487E1,3.192792892E0,-4.190301895E-2,2.744278193E0,4.210314135E0
1.303143084E1,3.221128941E0,4.165430069E-1,2.211594105E0,3.929418305E0
1.303942630E1,2.609034538E0,1.008154869E0,1.599702358E0,3.222186385E0
1.304745227E1,1.361954927E0,1.538569927E0,1.208608866E0,2.383873746E0
1.305547824E1,1.269040823E0,1.696028709E0,6.246263981E-1,2.208423902E0
1.306350421E1,9.774475098E-1,2.116096497E0,9.449007511E-1,2.515175033E0
1.307153018E1,5.936598778E-1,2.268233299E0,1.340778112E0,2.700925822E0
1.307964770E1,2.638144493E-1,2.034925938E0,1.588593960E0,2.595024548E0
1.308767367E1,2.088923454E-1,1.681408882E0,2.072554111E0,2.676985690E0
1.309566913E1,3.790345192E-1,1.615964890E0,2.742777824E0,3.205907030E0
1.310369510E1,5.956001282E-1,1.494903564E0,3.096644402E0,3.489796947E0
1.311172107E1,7.468619347E-1,1.325503349E0,2.878091097E0,3.255483104E0
1.311974704E1,8.863878250E-1,1.244576454E0,2.399611712E0,2.844782996E0
1.312777301E1,1.060884476E0,1.307201385E0,1.824769258E0,2.482747305E0
1.313579898E1,1.130508423E0,1.457811832E0,1.251213551E0,2.229080524E0
1.314379444E1,1.231799364E0,1.494564056E0,4.434940815E-1,1.986891641E0
1.315182041E1,1.175308466E0,1.646835327E0,-2.256155014E-1,2.035760040E0
1.315984638E1,9.527487755E-1,1.839201927E0,-6.280541420E-1,2.164450499E0
1.316787235E1,4.643239975E-1,1.816719055E0,-9.804050922E-1,2.115953460E0
1.317589832E1,-7.168626785E-2,1.686546803E0,-1.152761221E0,2.044122665E0
1.318392429E1,-5.519661903E-1,1.489915848E0,-1.238330603E0,2.014442501E0
1.319195026E1,-1.248034954E0,1.304958344E0,-1.119837046E0,2.124745287E0
1.319994572E1,-1.758804798E0,1.288397789E0,-9.237604141E-1,2.367846381E0
1.320797169E1,-1.839900017E0,1.296776772E0,-7.309973240E-1,2.366689493E0
