"Time (s)","Linear Acceleration x (m/s^2)","Linear Acceleration y (m/s^2)","Linear Acceleration z (m/s^2)","Absolute acceleration (m/s^2)"
1.075208333E-3,-2.019395567E0,-1.751584904E0,2.346502844E0,3.556976768E0
1.103020833E-2,-2.743054285E0,-2.790642142E-2,2.288899438E0,3.572700130E0
2.098520833E-2,-3.173813108E0,1.316867225E0,2.329280309E0,4.151237850E0
3.094020833E-2,-3.416747961E0,1.940225437E0,2.169457340E0,4.488338949E0
4.089520833E-2,-2.858925342E0,1.647570539E0,2.039504142E0,3.879113293E0
5.085020833E-2,-1.684403028E0,9.966351038E-1,1.371326437E0,2.389776409E0
6.080504167E-2,-2.215497585E-1,4.792138213E-1,8.311325884E-1,9.846377819E-1
7.076004167E-2,8.782975455E-1,-1.272488612E-1,6.778940231E-1,1.116753848E0
8.071404167E-2,1.540745710E0,-9.640900862E-1,8.744142634E-1,2.016920261E0
9.066904167E-2,2.774641237E0,-1.988397138E0,7.008197862E-1,3.484753297E0
1.006240417E-1,3.717009501E0,-3.980379204E0,3.601113009E-1,5.457953682E0
1.105790417E-1,4.791389769E0,-6.258111776E0,2.508134649E-1,7.885701384E0
1.205340417E-1,3.404289299E0,-6.285379096E0,-2.136999446E-1,7.151282660E0
1.304890417E-1,3.779584649E-1,-6.050387685E0,-8.073811984E-1,6.115709946E0
1.404440417E-1,-1.415589859E0,-6.770963459E0,-1.287771479E0,7.036206094E0
1.503990417E-1,-1.298699341E0,-7.300894275E0,-3.072159848E0,8.026695666E0
1.603540417E-1,-1.448965766E0,-6.787922723E0,-5.946553999E0,9.139852360E0
1.703090417E-1,-2.478401996E0,-5.004634216E0,-6.654030256E0,8.687056966E0
1.802640417E-1,-4.083056896E0,-2.677548221E0,-6.135861114E0,7.841518329E0
1.902190417E-1,-4.850232347E0,-2.269935894E-1,-5.173497126E0,7.095164017E0
2.001740417E-1,-6.293268160E0,2.928700751E0,-5.520262157E0,8.868810884E0
2.101290417E-1,-5.905183194E0,3.253741622E0,-4.797079110E0,8.274659575E0
2.200840417E-1,-2.351687278E0,2.620902734E0,-2.767556165E0,4.478719831E0
2.300390417E-1,-5.676238681E-1,2.573536195E0,-2.236903219E0,3.456735658E0
2.399940417E-1,1.591026940E0,1.653234152E0,-8.126401842E-1,2.434118723E0
2.499490417E-1,2.970035303E0,1.418192455E0,-3.822336566E-1,3.313379258E0
2.599030417E-1,4.147648748E0,1.353140427E0,3.611503512E-2,4.362944355E0
2.698580417E-1,3.704024590E0,1.421218389E0,-1.191618696E-1,3.969113178E0
2.798130417E-1,2.174201332E0,1.686547494E0,-9.866889900E-1,2.923208690E0
2.897680417E-1,1.071358134E0,1.883247828E0,-1.816619391E0,2.827461166E0
2.997230417E-1,1.205710632E0,1.873180093E0,-2.492573308E0,3.342972253E0
3.096780417E-1,1.933573644E0,1.903971530E0,-2.778888946E0,3.884074974E0
3.196330417E-1,2.442680186E0,1.983091375E0,-2.448304330E0,3.986669285E0
3.295880417E-1,2.761031550E0,1.852790267E0,-2.099802384E0,3.932594187E0
3.395430417E-1,3.127725061E0,1.877960191E0,-1.908726194E0,4.117357675E0
3.494980417E-1,3.295863502E0,2.085256850E0,-1.814052171E0,4.301371599E0
3.594530417E-1,3.204227692E0,2.412575796E0,-1.463111643E0,4.269460476E0
3.694080417E-1,3.036857576E0,2.750419731E0,-8.485473508E-1,4.184177964E0
3.793630417E-1,2.975238156E0,3.021153417E0,-9.426793367E-2,4.241261191E0
3.893180417E-1,2.817444609E0,3.052186344E0,1.532353494E-1,4.156599172E0
3.992730417E-1,2.225006035E0,3.122344746E0,5.945396250E-1,3.879840968E0
4.092280417E-1,1.398948976E0,3.149551840E0,8.797264588E-1,3.556775742E0
4.191830417E-1,5.174278606E-1,3.130845428E0,7.797370246E-1,3.267707838E0
4.291380417E-1,-2.448078628E-1,3.028685800E0,8.311334655E-1,3.150182757E0
4.390930417E-1,-1.535574725E0,2.585526495E0,6.957050805E-1,3.086574566E0
4.490470417E-1,-3.162549031E0,1.887409877E0,1.896770976E-1,3.687819114E0
4.590020417E-1,-5.372795963E0,1.202105092E0,6.800229943E-1,5.547470089E0
4.689570417E-1,-6.958609380E0,-3.004299402E-3,1.571484230E0,7.133850028E0
4.789120417E-1,-7.360442319E0,-1.710638607E0,1.784807614E0,7.764530494E0
4.888670417E-1,-7.259222338E0,-2.932516644E0,3.588384790E0,8.612343945E0
4.988220417E-1,-5.446091981E0,-3.443649831E0,4.417946817E0,7.812611349E0
5.087770417E-1,-3.010669944E0,-3.170477271E0,3.212555589E0,5.425548180E0
5.187320417E-1,-2.428186254E0,-2.279460424E0,2.244041792E0,4.015937234E0
5.286870417E-1,-3.526935816E0,-1.321087160E0,3.133047782E0,4.899034185E0
5.386420417E-1,-3.824944425E0,-2.451164496E-1,3.190384994E0,4.986866585E0
5.485970417E-1,-3.126246593E0,-1.108069586E0,1.220172258E0,3.534127375E0
5.585520417E-1,-1.881146193E0,-4.112827994E0,-1.275649617E0,4.699079384E0
5.685070417E-1,5.858866230E-2,-6.416129855E0,-2.718277001E0,6.968442064E0
5.784620417E-1,1.865297023E0,-6.979168190E0,-3.376968768E0,7.974461717E0
5.884170417E-1,3.023827348E0,-6.489128249E0,-3.364786094E0,7.910379430E0
5.983720417E-1,3.399779926E0,-6.293833585E0,-3.567711959E0,7.993710864E0
6.083270417E-1,2.674853824E0,-4.458628235E0,-4.034962378E0,6.581423106E0
6.182810417E-1,9.680506977E-1,-9.201377356E-1,-3.416744745E0,3.668503817E0
6.282360417E-1,2.770859550E-1,1.541536546E0,-5.495850617E-1,1.659866045E0
6.381910417E-1,1.527413327E0,3.276214226E0,2.056914519E0,4.159022537E0
6.481460417E-1,2.773186742E0,3.406779043E0,1.912734168E0,4.791164801E0
6.581010417E-1,3.754801810E0,2.131783145E0,1.135194527E-1,4.319250245E0
6.680560417E-1,4.493869988E0,-3.017882484E-1,-2.017317467E0,4.935130533E0
6.780110417E-1,3.798398358E0,-2.975656816E0,-2.992508200E0,5.677804937E0
6.879660417E-1,2.372222261E0,-4.983331055E0,-1.810716334E0,5.808590234E0
6.979210417E-1,1.433965027E0,-5.936887382E0,-7.876588324E-1,6.158189176E0
7.078760417E-1,1.822987740E0,-5.262619218E0,-1.440508938E0,5.752696005E0
7.178310417E-1,2.118102415E0,-3.256003910E0,-3.315400511E0,5.106838537E0
7.277860417E-1,1.143352416E0,-7.145788693E-1,-2.201205967E0,2.581314668E0
7.377410417E-1,9.610395938E-1,1.191245059E0,-8.776730628E-1,1.764361612E0
7.476960417E-1,1.170339070E0,1.793691289E0,-4.071139978E-1,2.180083436E0
7.576510417E-1,2.070760141E0,1.915902774E0,1.195165032E-1,2.823652810E0
7.676060417E-1,2.929354177E0,1.653881439E0,6.227957100E-1,3.421156852E0
7.775610417E-1,3.199934666E0,1.383253587E0,1.618092678E-1,3.489864553E0
7.875150417E-1,2.230252157E0,1.412658066E0,-1.039397692E0,2.837247796E0
7.974700417E-1,2.450270164E0,1.287893686E0,-1.905273705E0,3.360440733E0
8.074250417E-1,2.402942801E0,1.096205585E0,-2.264766955E0,3.479219762E0
8.173800417E-1,1.358397220E0,1.327737783E0,-1.398262221E0,2.358658065E0
8.273350417E-1,-1.657918064E-1,1.601532487E0,-6.213977869E-1,1.725841371E0
8.372900417E-1,-1.078476535E0,1.994597526E0,-3.320534366E-1,2.291678514E0
8.472450417E-1,-1.149721788E0,2.077509289E0,-2.343523103E-1,2.385964384E0
8.572000417E-1,-6.999698934E-1,2.093658130E0,-7.299079299E-3,2.207581367E0
8.671550417E-1,-1.452940996E-1,1.671799062E0,4.778710082E-2,1.678781131E0
8.771100417E-1,8.864780925E-2,1.226774495E0,4.031217382E-1,1.294349733E0
8.870650417E-1,-2.609758526E-2,9.700314420E-1,5.741609091E-1,1.127520657E0
8.970200417E-1,1.229877759E-1,8.708363521E-1,2.235642705E-1,9.074485816E-1
9.069750417E-1,2.458369727E-1,6.443865538E-1,-1.021081728E-1,6.972057995E-1
9.169300417E-1,5.393780158E-1,2.330168062E-1,-2.391943896E-1,6.343811409E-1
9.268850417E-1,3.257658526E-1,-2.018271732E-1,-2.491609687E-1,4.570982245E-1
9.368400417E-1,-2.818853496E-1,-1.185794284E0,-9.291810393E-3,1.218873977E0
9.467950417E-1,2.054102008E-1,-1.291413710E0,3.799789703E-1,1.361736663E0
9.567490417E-1,-1.299474974E-1,-1.092403141E0,1.010851439E0,1.494005223E0
9.667040417E-1,-2.848749579E-1,-6.929874408E-1,1.719162093E0,1.875340939E0
9.766590417E-1,-6.658179878E-1,2.424647373E-1,2.581889527E0,2.677359944E0
9.866140417E-1,-1.705759106E0,1.878594030E0,3.856701822E0,4.616587333E0
9.965690417E-1,-2.420517485E0,3.760925599E0,5.070183842E0,6.760934140E0
1.006524042E0,-2.105655300E0,5.295225631E0,5.900730540E0,8.203159125E0
1.016479042E0,-1.288410873E0,5.725046852E0,6.270399699E0,8.588019354E0
1.026434042E0,-2.974785581E-1,4.604410431E0,5.358678446E0,7.071387671E0
1.036389042E0,4.015893292E-1,2.395441115E0,4.741069801E0,5.327021211E0
1.046344042E0,9.594118752E-1,3.720343584E-1,4.900446188E0,5.007319997E0
1.056299042E0,1.189339086E0,-1.449834078E0,5.215586554E0,5.542462396E0
1.066254292E0,7.449476995E-1,-2.925833861E0,4.628579897E0,5.526228616E0
1.076209292E0,1.205513142E-2,-3.930044033E0,3.958409461E0,5.578028046E0
1.086164292E0,-9.868758085E-1,-3.936140925E0,3.092223984E0,5.101860289E0
1.096119292E0,-2.264791514E0,-2.942231793E0,2.198095833E0,4.314815618E0
1.106074292E0,-3.501053701E0,-1.488782381E0,1.826361437E0,4.220123943E0
1.116029292E0,-4.043487910E0,-1.699399674E-1,1.857063851E0,4.452792407E0
1.125983292E0,-3.944610909E0,6.649336696E-1,2.281580039E0,4.605181808E0
1.135938292E0,-2.992486272E0,9.087701637E-1,2.205714755E0,3.827011221E0
1.145893292E0,-2.086929592E0,4.171561521E-1,1.569782106E0,2.644524577E0
1.155848292E0,-5.977902384E-1,3.470907211E-2,1.649394870E0,1.754725428E0
1.165803292E0,1.148414496E0,-2.213364083E-1,1.886980106E0,2.220031437E0
1.175758292E0,2.604155139E0,-8.424077743E-1,1.739418018E0,3.242969301E0
1.185713292E0,3.643724594E0,-1.934453065E0,1.530146170E0,4.400021009E0
1.195668292E0,4.142814270E0,-3.138500018E0,1.045462278E0,5.301517124E0
1.205623292E0,4.512967287E0,-4.142406719E0,-3.788136202E-1,6.137581520E0
1.215578292E0,3.750165261E0,-5.156236145E0,-7.978305025E-1,6.425499528E0
1.225533292E0,1.034865515E0,-6.093955874E0,-1.194537772E0,6.295567116E0
1.235488292E0,-1.791721800E0,-8.058579403E0,-1.670452887E0,8.422670707E0
1.245443292E0,-2.663069345E0,-9.052485026E0,-2.647998147E0,9.800577415E0
1.255398292E0,-3.008018816E0,-8.596945996E0,-4.160597407E0,1.001330257E1
1.265353292E0,-4.097864969E0,-6.288949991E0,-5.603984345E0,9.367391837E0
1.275308292E0,-5.384092199E0,-3.764281316E0,-7.710958339E0,1.013001190E1
1.285263292E0,-5.120873355E0,-1.305213139E0,-8.196682450E0,9.752565224E0
1.295217292E0,-3.813153514E0,1.367064402E0,-6.247770975E0,7.446049083E0
1.305172292E0,-4.310339922E0,2.590141702E0,-4.565653916E0,6.792132210E0
1.315127292E0,-4.513680647E0,3.429832860E0,-2.981047364E0,6.404975396E0
1.325082292E0,-1.717340832E0,3.163268239E0,-1.363558996E0,3.849002289E0
1.335037292E0,1.181017840E0,2.130120197E0,4.693092227E-1,2.480416566E0
1.344992292E0,2.734825206E0,1.124223688E0,6.908651939E-1,3.036518159E0
1.354947292E0,3.544050617E0,1.022268713E0,6.206179145E-1,3.740386971E0
1.364902292E0,2.940096974E0,1.323641224E0,1.417052248E-1,3.227425705E0
1.374857292E0,1.888812039E0,1.885667406E0,-7.857011846E-1,2.782207547E0
1.384812292E0,1.574913037E0,2.198561271E0,-2.126746061E0,3.440504549E0
1.394767292E0,1.844919622E0,1.988321709E0,-3.129531559E0,4.141390999E0
1.404722292E0,2.118787416E0,1.852489720E0,-3.302762631E0,4.339264831E0
1.414677292E0,2.723929212E0,1.701273707E0,-3.009761286E0,4.401452667E0
1.424632292E0,3.201919796E0,1.622413478E0,-2.317205370E0,4.272464933E0
1.434587292E0,3.572086846E0,1.604114617E0,-1.662956318E0,4.254222826E0
1.444542292E0,3.767185336E0,1.593006662E0,-1.479612778E0,4.349552799E0
1.454497292E0,3.686994574E0,1.633108621E0,-1.487880741E0,4.298227757E0
1.464451292E0,3.612743414E0,2.006961463E0,-1.116807080E0,4.281012420E0
1.474406292E0,3.442113183E0,2.311745825E0,-5.270984244E-1,4.179730215E0
1.484361292E0,3.092993185E0,2.587305218E0,-2.918579221E-2,4.032568282E0
1.494316292E0,2.599906845E0,2.870544929E0,3.312830660E-1,3.887067308E0
1.504271292E0,1.862281467E0,3.044414810E0,4.548405799E-1,3.597698396E0
1.514226292E0,8.141629453E-1,3.169608960E0,1.180991381E-1,3.274634279E0
1.524181292E0,-1.745965438E-1,3.273171335E0,-4.186314046E-2,3.278091985E0
1.534136292E0,-1.349305677E0,3.249977769E0,1.211651257E-1,3.521031425E0
1.544091292E0,-2.863224215E0,2.954847161E0,-1.047470212E-2,4.114521159E0
1.554046292E0,-4.374529194E0,2.076044562E0,1.878125668E-3,4.842155534E0
1.564001292E0,-6.010655855E0,1.019397145E0,6.028064185E-1,6.126216608E0
1.573956292E0,-6.915879682E0,-2.392148548E-1,1.011327841E0,6.993525544E0
1.583911292E0,-6.677435490E0,-1.555633013E0,1.798730858E0,7.088269993E0
1.593866292E0,-4.941631637E0,-2.219311870E0,2.567243129E0,5.994648087E0
1.603821292E0,-2.616936568E0,-2.571871492E0,2.838812674E0,4.639152657E0
1.613776292E0,-1.628268003E0,-2.290246782E0,2.624133029E0,3.844809640E0
1.623730292E0,-2.057836771E0,-1.421870939E0,1.886256806E0,3.132790111E0
1.633685292E0,-3.329447277E0,-6.752265233E-1,2.129394850E0,4.009422958E0
1.643640292E0,-4.510416732E0,-1.250976706E-1,2.517261714E0,5.166828336E0
1.653595292E0,-4.469048266E0,-2.121650505E-1,2.225091258E0,4.996842755E0
1.663550292E0,-3.581125180E0,-1.507480608E0,1.354336475E0,4.114751830E0
1.673505292E0,-2.334175013E0,-3.676013503E0,-2.014079279E-1,4.359129893E0
1.683460292E0,-2.538910738E-1,-5.309503362E0,-1.461128267E0,5.512729128E0
1.693415292E0,1.605033215E0,-5.221166552E0,-2.246015227E0,5.906038959E0
1.703370292E0,2.164738199E0,-5.274283243E0,-3.410659840E0,6.643549936E0
1.713325292E0,1.364002507E0,-7.039663484E0,-4.636461943E0,8.538977934E0
1.723280292E0,1.147518557E0,-8.408127708E0,-4.729215156E0,9.714879638E0
1.733235292E0,1.237186486E0,-5.853441183E0,-4.004204269E0,7.199101049E0
1.743190292E0,7.403089571E-1,-2.486109796E0,-3.304342549E0,4.200890257E0
1.753145292E0,1.055989898E0,8.702533847E-1,-7.802046557E-1,1.575174569E0
1.763099292E0,1.761301807E0,3.600911865E0,2.204763705E0,4.574902547E0
1.773054292E0,2.041559438E0,4.427307039E0,2.586487777E0,5.518961096E0
1.783009292E0,3.237821408E0,3.375782368E0,3.401325345E-2,4.677665119E0
1.792964292E0,4.055376177E0,1.706984682E0,-2.283459334E0,4.957222929E0
1.802919292E0,3.469979258E0,3.117975122E-1,-2.182122263E0,4.110916116E0
1.812874292E0,2.479003674E0,-1.879160040E0,-7.275077941E-1,3.194678272E0
1.822829292E0,2.248173288E0,-3.708206518E0,4.564321920E-2,4.336722497E0
1.832784292E0,3.676138633E0,-4.893993786E0,-2.258697107E0,6.524330084E0
1.842739292E0,3.240030486E0,-3.502833009E0,-3.195769695E0,5.742872154E0
1.852694292E0,2.309585132E0,-1.045461693E0,-1.489188909E0,2.940213809E0
1.862649292E0,1.945133151E0,4.987990701E-1,-9.283814326E-2,2.010214518E0
1.872604292E0,2.193994742E0,1.205276622E0,5.819879919E-1,2.570022313E0
1.882559292E0,2.328009270E0,1.631092501E0,8.907117690E-1,2.978834901E0
1.892514292E0,2.130008807E0,2.061075105E0,3.288865846E-1,2.982135895E0
1.902469292E0,2.236119838E0,2.199842396E0,1.224734402E-1,3.139193884E0
1.912424292E0,2.499077750E0,1.508367630E0,-2.328220940E-1,2.928270588E0
1.922378292E0,1.938829560E0,1.228083102E0,-1.724072439E0,2.870483225E0
1.932333292E0,1.793971955E0,9.174977177E-1,-1.543331495E0,2.538111412E0
1.942288292E0,7.020589574E-1,7.665951151E-1,-1.031979768E0,1.464765200E0
1.952243292E0,-5.966755398E-1,1.058217979E0,-1.048489382E0,1.604735796E0
1.962198292E0,-1.278855499E0,1.381125786E0,-1.021682822E0,2.141685227E0
1.972153292E0,-1.247788511E0,1.684580491E0,-2.603028381E-1,2.112473708E0
1.982108292E0,-8.570681327E-1,1.710387177E0,6.941573225E-2,1.914368988E0
1.992063292E0,-3.749654214E-1,1.456602815E0,5.571460962E-2,1.505122900E0
2.002018292E0,-1.847033098E-1,1.266211041E0,4.446193546E-1,1.354655707E0
2.011973292E0,-7.941505574E-2,1.096903743E0,7.621676034E-1,1.338059800E0
2.021928292E0,-1.075520767E-1,8.315208435E-1,6.184798070E-1,1.041878896E0
2.031883292E0,-4.546729110E-2,5.710355723E-1,1.937789560E-1,6.047306699E-1
2.041838292E0,-1.434452100E-1,2.801687533E-1,-1.112497463E-1,3.338376321E-1
2.051793292E0,-8.035536110E-2,-1.242936784E-1,-3.075425299E-1,3.413038386E-1
2.061749042E0,-8.071474560E-2,-4.525534415E-1,-3.922692329E-1,6.043133613E-1
2.071703042E0,-2.219834758E-1,-4.787612468E-1,-9.844313800E-2,5.368240367E-1
2.081658042E0,-6.217511049E-1,-5.762857872E-1,1.860279965E-1,8.679205957E-1
2.091613042E0,-9.571784580E-1,-4.072737730E-1,6.280669749E-1,1.215125776E0
2.101568042E0,-1.275841113E0,1.719350374E-1,1.225493370E0,1.777404344E0
2.111523042E0,-1.488437688E0,9.838174224E-1,2.479825208E0,3.054975701E0
2.121478042E0,-1.690362217E0,2.344070987E0,3.524153126E0,4.557592399E0
2.131433042E0,-1.911038329E0,4.048595161E0,4.344048536E0,6.238104516E0
2.141388042E0,-2.581420580E0,4.514402486E0,5.623094215E0,7.659161219E0
2.151343042E0,-1.419471826E0,4.356566255E0,5.214170358E0,6.941335774E0
2.161298042E0,-7.493752111E-1,3.245054998E0,4.877885292E0,5.906412623E0
2.171253042E0,-5.956775663E-1,2.085160371E0,4.453378605E0,4.953312683E0
2.181208042E0,-1.283134199E-1,8.750440085E-1,4.546156375E0,4.631382530E0
2.191163042E0,-2.583162466E-1,-7.104899114E-1,4.276906128E0,4.343207251E0
2.201118042E0,-5.986461611E-1,-2.567749790E0,3.420527601E0,4.318764323E0
2.211073042E0,-3.957732134E-1,-4.195502946E0,2.630048364E0,4.967497942E0
2.221027042E0,-7.847589789E-1,-4.643545260E0,1.988574893E0,5.112023997E0
2.230982042E0,-1.517818485E0,-3.711319576E0,1.936745174E0,4.452936988E0
2.240937042E0,-2.202140644E0,-2.264205623E0,2.157421432E0,3.824985981E0
2.250892042E0,-2.641571180E0,-9.945996881E-1,2.685465935E0,3.896004893E0
2.260847042E0,-2.928246422E0,-1.853333473E-2,3.305663728E0,4.416150278E0
2.270802042E0,-2.955302366E0,3.778283644E-1,3.393978903E0,4.516155350E0
2.280757042E0,-2.374847807E0,2.541673547E-1,2.933670884E0,3.782978721E0
2.290712042E0,-1.264930062E0,-1.675613201E-1,1.941042877E0,2.322880176E0
2.300667042E0,4.989745597E-1,-6.702253997E-1,1.355077025E0,1.591983493E0
2.310622042E0,1.744955916E0,-1.102338730E0,1.669033914E0,2.654373001E0
2.320577042E0,2.524352340E0,-1.577684033E0,1.323577928E0,3.257806037E0
2.330532042E0,3.556234168E0,-2.561055313E0,-2.455742866E-1,4.389317999E0
2.340487042E0,4.774410917E0,-4.112309931E0,-5.507194946E-1,6.325297189E0
2.350441042E0,4.922836347E0,-5.754193468E0,1.932691153E-1,7.575118026E0
2.360396042E0,2.727322059E0,-6.015040097E0,1.019134605E-1,6.605253919E0
2.370351042E0,-7.745797804E-1,-6.723608614E0,5.960417747E-2,6.768340955E0
2.380306042E0,-3.174605405E0,-7.565021192E0,-1.520328695E-1,8.205533444E0
2.390261042E0,-5.215381901E0,-7.453380303E0,-2.496817802E0,9.433301938E0
2.400216042E0,-5.195707190E0,-5.944496364E0,-6.726862589E0,1.037222688E1
2.410171042E0,-5.669432230E0,-3.594586347E0,-9.347677031E0,1.150836994E1
2.420126042E0,-4.318157357E0,1.638822520E-1,-6.774393436E0,8.035281375E0
2.430081042E0,-6.173539402E0,2.611872879E0,-5.662808504E0,8.775070874E0
2.440036042E0,-6.398733219E0,3.341929328E0,-4.372313392E0,8.439751349E0
2.449991042E0,-3.992197596E0,2.328622059E0,-2.915110360E0,5.464246586E0
2.459946042E0,-4.740969229E-1,2.094864410E0,-3.268366970E0,3.910939458E0
2.469901042E0,1.139674225E0,1.711308698E0,-1.608973361E0,2.610791082E0
2.479856042E0,2.178852646E0,1.495065215E0,9.750389975E-1,2.816614971E0
2.489811042E0,3.369159227E0,1.115397316E0,9.291088262E-1,3.668594865E0
2.499765042E0,3.599045434E0,1.174498048E0,-3.412277180E-1,3.801185349E0
2.509720042E0,2.120119558E0,1.735676385E0,-1.287308965E0,3.027316274E0
2.519675042E0,1.971045233E0,2.206202998E0,-2.282389879E0,3.736529745E0
2.529630042E0,2.126573276E0,2.370603898E0,-2.913454136E0,4.316282167E0
2.539585042E0,2.407743657E0,2.513983473E0,-3.057175189E0,4.632889223E0
2.549540042E0,2.956326798E0,2.334248250E0,-3.000437901E0,4.815725348E0
2.559495042E0,3.177964923E0,2.011174382E0,-2.694437026E0,4.626475368E0
2.569450042E0,3.097337082E0,1.833371079E0,-2.251068976E0,4.245239457E0
2.579405042E0,3.079910917E0,1.725578828E0,-1.934730223E0,4.025748947E0
2.589360042E0,3.082086666E0,1.691216496E0,-1.703856422E0,3.906737534E0
2.599315042E0,3.044040003E0,1.878636129E0,-1.394627591E0,3.839327984E0
2.609270042E0,3.105028802E0,2.133148470E0,-9.567451063E-1,3.886757962E0
2.619225042E0,3.181227085E0,2.260033634E0,-3.550443962E-1,3.918419875E0
2.629180042E0,2.694731433E0,2.561830069E0,5.756057560E-1,3.762429107E0
2.639134042E0,1.762745192E0,2.966245138E0,9.181587455E-1,3.570559664E0
2.649089042E0,6.256570449E-1,3.258553880E0,6.016287893E-1,3.372176942E0
2.659044042E0,-2.547234249E-1,3.560066140E0,5.725669581E-1,3.614801221E0
2.668999042E0,-1.522014154E0,3.618871003E0,5.636598945E-1,3.966165264E0
2.678954042E0,-3.542442048E0,3.050385987E0,5.132580650E-1,4.702891044E0
2.688909042E0,-6.116355972E0,2.110267730E0,5.392699885E-1,6.492599818E0
2.698864042E0,-7.489827168E0,4.668656713E-1,5.329501717E-1,7.523264614E0
2.708819042E0,-7.989051331E0,-1.638773403E0,4.191374812E-1,8.166161623E0
2.718774042E0,-7.876100081E0,-2.321770291E0,1.961261087E0,8.442162924E0
2.728729042E0,-5.328631943E0,-2.965382089E0,3.768229941E0,7.168498184E0
2.738684042E0,-2.244862449E0,-3.018719805E0,4.231884614E0,5.662236666E0
2.748639042E0,-1.545458127E0,-2.054053769E0,3.196413766E0,4.101784815E0
2.758594042E0,-2.711124687E0,-6.156071430E-1,3.070081163E0,4.141807283E0
2.768549042E0,-3.532494764E0,5.025167298E-1,2.838540779E0,4.559424972E0
2.778503042E0,-2.961702144E0,1.166928828E-2,1.251197146E0,3.215168745E0
2.788458042E0,-2.055280222E0,-2.058909296E0,-9.365695810E-1,3.056214466E0
2.798413042E0,-6.151519373E-1,-4.722022496E0,-3.019134081E0,5.638357824E0
2.808368042E0,9.513699071E-1,-6.404583943E0,-2.904278978E0,7.096381935E0
2.818323042E0,1.284914238E0,-6.993717817E0,-2.745775872E0,7.622491629E0
2.828278042E0,6.036485638E-1,-8.748646159E0,-4.434423393E0,9.826866847E0
2.838233042E0,9.900944084E-2,-1.072023372E1,-5.238680717E0,1.193218293E1
2.848188042E0,-7.094511536E-1,-7.536889653E0,-5.214859160E0,9.192539510E0
2.858143042E0,-3.183123337E-1,-2.295168384E0,-2.847725000E0,3.671329232E0
2.868098042E0,1.049260045E0,1.743539135E0,5.598701678E-1,2.110528361E0
2.878053042E0,2.612736513E0,4.144248008E0,2.500356537E0,5.500269670E0
2.888008042E0,4.540072348E0,4.117364264E0,1.678713102E0,6.354763810E0
2.897963042E0,5.226771693E0,3.117225509E0,-2.573853698E-1,6.091180873E0
2.907918042E0,5.427643431E0,1.793877230E0,-8.432534279E-1,5.778268346E0
2.917872042E0,3.993619639E0,-1.651872920E0,-8.526029795E-1,4.405066834E0
2.927827042E0,2.718611170E0,-5.082989829E0,-6.529904392E-1,5.801209254E0
2.937782042E0,2.813703561E0,-6.451434758E0,-1.588079213E0,7.215257012E0
2.947737042E0,2.198318027E0,-4.991789052E0,-3.296654922E0,6.373263981E0
2.957692042E0,5.732377799E-1,-2.188660766E0,-1.939440740E0,2.979977833E0
2.967647042E0,-3.413005158E-1,-5.616426051E-2,-7.043184677E-1,7.846687009E-1
2.977602042E0,-1.462818405E-1,1.298181278E0,-7.918996717E-1,1.527670808E0
2.987557042E0,1.517082320E0,1.945061084E0,-4.835584487E-1,2.513688557E0
2.997512042E0,2.586985375E0,1.757605782E0,3.973257588E-1,3.152703471E0
3.007467042E0,3.293083443E0,1.587220842E0,3.756543696E-1,3.674885681E0
3.017422042E0,2.998838103E0,1.348366175E0,-5.279753606E-1,3.330147037E0
3.027377042E0,1.940125303E0,1.134264527E0,-1.341612641E0,2.617358724E0
3.037332042E0,1.834390687E0,9.309077221E-1,-1.769076119E0,2.713154750E0
3.047286042E0,1.207477368E0,6.136799008E-1,-1.702275335E0,2.175395580E0
3.057241042E0,2.991533469E-1,1.190645134E0,-1.148304861E0,1.680991557E0
3.067195208E0,-6.381810500E-1,1.921405588E0,-6.162789881E-1,2.116335106E0
3.077150208E0,-1.063414692E0,2.200479158E0,-5.139926215E-1,2.497428227E0
3.087105208E0,-8.291272858E-1,2.121209040E0,-3.664227855E-1,2.306782501E0
3.097060208E0,-2.200570375E-1,1.878313948E0,-2.469001427E-2,1.891321756E0
3.107015208E0,-1.624346276E-1,1.260764360E0,2.304422041E-1,1.291903785E0
3.116970208E0,-1.646399780E-1,6.763158596E-1,7.811312932E-1,1.046267443E0
3.126925208E0,-1.382760521E-1,3.879691905E-1,8.185850483E-1,9.163633781E-1
3.136880208E0,-1.906815762E-1,4.480692118E-1,4.006828646E-1,6.306125911E-1
3.146835208E0,-3.193415167E-1,6.369822246E-1,1.113468466E-1,7.211958673E-1
3.156790208E0,-5.909203447E-1,6.951251829E-1,-1.106825298E-1,9.190410742E-1
3.166745208E0,-8.718655352E-1,4.815135312E-1,-3.687991305E-1,1.062081725E0
3.176699208E0,-9.127635927E-1,4.017914236E-2,-1.906420527E-1,9.333253087E-1
3.186654208E0,-9.779534691E-1,-3.096486604E-1,3.042434943E-1,1.069971675E0
3.196609208E0,-1.016374208E0,-3.445080060E-1,9.182596099E-1,1.412410354E0
3.206564208E0,-1.150194316E0,-4.921542943E-2,1.556176804E0,1.935731223E0
3.216519208E0,-1.129587120E0,6.214081657E-1,2.112473885E0,2.474805262E0
3.226474208E0,-6.727152903E-1,1.873343230E0,2.505604413E0,3.200002217E0
3.236429208E0,-2.001132812E0,2.880601555E0,3.732640278E0,5.122011451E0
3.246384208E0,-1.880476248E0,4.070431003E0,4.528481412E0,6.372734371E0
3.256339208E0,-1.289207409E0,4.821002993E0,5.076117597E0,7.118363257E0
3.266294208E0,-9.778414218E-1,4.417912318E0,5.176506103E0,6.875342794E0
3.276249208E0,-8.509856397E-1,3.052562905E0,5.007032744E0,5.925596488E0
3.286204208E0,-4.930232636E-1,1.380739285E0,4.760657973E0,4.981302766E0
3.296159208E0,-2.846763718E-1,-3.234170991E-1,4.459414101E0,4.480180061E0
3.306113208E0,-3.015747520E-1,-1.746667396E0,3.755203514E0,4.152511018E0
3.316068208E0,-3.176521099E-1,-2.932931796E0,2.873085544E0,4.117962157E0
3.326023208E0,-7.115467957E-1,-3.658240306E0,2.037983866E0,4.247634544E0
3.335978208E0,-1.203389580E0,-2.956160445E0,1.537954249E0,3.542927367E0
3.345933208E0,-1.816642487E0,-1.629623095E0,1.467882679E0,2.847901143E0
3.355888208E0,-2.348270457E0,-9.165416980E-1,1.666071714E0,3.021625023E0
3.365843208E0,-2.631774170E0,-6.135038996E-1,2.315114990E0,3.558423771E0
3.375798208E0,-2.479311823E0,-4.003845835E-1,2.815523214E0,3.772859115E0
3.385753208E0,-1.866751371E0,-2.331857908E-1,2.894026762E0,3.451742632E0
3.395708208E0,-1.243761241E0,-4.724064928E-1,2.227374011E0,2.594475844E0
3.405663208E0,-2.471730615E-1,-9.948803544E-1,2.061330628E0,2.302165372E0
3.415618208E0,7.819887874E-1,-1.161882096E0,2.033490865E0,2.469121619E0
3.425573208E0,1.842106234E0,-1.490515496E0,1.391288831E0,2.747849420E0
3.435527208E0,3.029826592E0,-2.696859820E0,1.438672328E-1,4.058768267E0
3.445482208E0,3.683579800E0,-4.364903800E0,-7.953488711E-1,5.766604300E0
3.455437208E0,4.055225319E0,-5.659678490E0,-5.090159100E-1,6.981110957E0
3.465392208E0,2.407765877E0,-6.583785315E0,-1.691864075E-1,7.012288473E0
3.475347208E0,-5.981290846E-1,-7.859930776E0,-4.240283847E-2,7.882770338E0
3.485302208E0,-2.665140721E0,-8.217544731E0,-5.288280308E-1,8.655095352E0
3.495257208E0,-2.855329304E0,-7.602110665E0,-3.141949875E0,8.707286663E0
3.505212208E0,-2.947772322E0,-5.844439394E0,-7.154097587E0,9.696800801E0
3.515167208E0,-3.733188162E0,-3.487740176E0,-9.076306583E0,1.041539085E1
3.525122208E0,-3.275927128E0,-2.018985093E-2,-6.624542747E0,7.390309384E0
3.535077208E0,-4.053956765E0,2.019107299E0,-4.809426968E0,6.606205227E0
3.545032208E0,-5.692908801E0,3.473482325E0,-3.387586727E0,7.479975529E0
3.554986208E0,-5.536951865E0,3.556406368E0,-1.822865679E0,6.828521179E0
3.564941208E0,-1.691695529E0,2.105435591E0,-1.356266933E0,3.022276093E0
3.574896208E0,9.026761955E-1,1.379807239E0,-1.124570428E0,1.995833404E0
3.584851208E0,2.348663536E0,6.224559867E-1,2.294739783E-3,2.429748367E0
3.594806208E0,4.223157937E0,1.468656850E-1,-7.836818486E-2,4.226437514E0
3.604761208E0,3.946937516E0,2.181198549E-1,-1.004864475E0,4.078681728E0
3.614716208E0,2.378088626E0,8.283072138E-1,-1.851509727E0,3.125617798E0
3.624671208E0,1.439511696E0,1.298609294E0,-2.689224526E0,3.315193595E0
3.634626208E0,1.102987186E0,1.559275244E0,-3.402029642E0,3.901503006E0
3.644581208E0,1.099556624E0,1.906870580E0,-3.707494620E0,4.311693001E0
3.654536208E0,1.770476381E0,1.784904678E0,-3.674913057E0,4.452578725E0
3.664491208E0,2.508179234E0,1.542213653E0,-3.136481559E0,4.301964969E0
3.674445208E0,2.856537339E0,1.390532202E0,-2.339883796E0,3.945686449E0
3.684400208E0,3.121488714E0,1.186328135E0,-1.972369920E0,3.878312692E0
3.694355208E0,3.336142924E0,1.134185005E0,-1.881729014E0,3.994637570E0
3.704310208E0,3.355059251E0,1.413561460E0,-1.708738554E0,4.021736693E0
3.714265208E0,3.296511373E0,1.867434618E0,-1.289482667E0,4.002132536E0
3.724220208E0,3.101735065E0,2.235522106E0,-7.553319159E-1,3.897286980E0
3.734175208E0,2.691327184E0,2.670130443E0,-1.744382304E-1,3.795163671E0
3.744130208E0,1.976513549E0,3.072028286E0,4.468667319E-1,3.680170305E0
3.754085208E0,1.100571993E0,3.365984774E0,4.160779256E-1,3.565702322E0
3.764040208E0,2.306178398E-1,3.723505173E0,2.285866633E-1,3.737636583E0
3.773995208E0,-7.927388933E-1,4.131293501E0,3.288667041E-1,4.219499290E0
3.783950208E0,-2.086151474E0,4.003683282E0,3.706257641E-3,4.514589852E0
3.793905208E0,-3.761046637E0,3.485279667E0,-6.038536549E-2,5.127991084E0
3.803859208E0,-5.851714500E0,2.621393316E0,3.440168399E-1,6.421262578E0
3.813814208E0,-6.958253285E0,8.996824211E-1,1.754495063E-1,7.018368739E0
3.823769208E0,-7.073579088E0,-9.604846931E-1,7.140213373E-1,7.174111683E0
3.833724208E0,-6.252994292E0,-2.006860891E0,2.941608187E0,7.195865965E0
3.843679208E0,-3.492036417E0,-2.840630574E0,4.012995265E0,6.030558133E0
3.853634208E0,-9.984054945E-1,-3.038315579E0,3.198567295E0,4.523163476E0
3.863589208E0,-1.181111980E0,-2.280994148E0,1.997515286E0,3.253924881E0
3.873544208E0,-2.465919945E0,-1.310575036E0,1.638559395E0,3.237783963E0
3.883499208E0,-3.137142879E0,-8.015907007E-1,8.240334839E-1,3.341144157E0
3.893454208E0,-3.067765081E0,-2.235305759E0,-3.903013524E-1,3.815771164E0
3.903409208E0,-2.614973365E0,-4.966375884E0,-1.440886669E0,5.794750168E0
3.913364208E0,-1.586618871E0,-6.677821991E0,-1.237550621E0,6.974395854E0
3.923318208E0,-6.500991373E-1,-6.336958555E0,-7.916498494E-1,6.419219742E0
3.933273208E0,5.108842416E-1,-6.531286089E0,-1.820650461E0,6.799519747E0
3.943228208E0,1.604239455E0,-7.663201205E0,-3.983596927E0,8.784490959E0
3.953183208E0,1.811909751E0,-6.752873343E0,-4.766210489E0,8.461742005E0
3.963138208E0,5.633108157E-1,-3.200046641E0,-4.378692411E0,5.452574145E0
3.973093208E0,9.160780138E-1,-3.232276493E-1,-1.948805056E0,2.177502282E0
3.983048208E0,2.167123716E0,2.014564598E0,4.971232581E-1,3.000337857E0
3.993003208E0,2.694325052E0,3.013545604E0,2.096688157E0,4.553783682E0
4.002958208E0,3.810252418E0,2.712812778E0,1.025741812E0,4.788478143E0
4.012913208E0,4.514506567E0,9.941091067E-1,-1.795380696E0,4.959073935E0
4.022868208E0,3.883265138E0,-1.110438293E0,-3.380414532E0,5.266879887E0
4.032823208E0,3.581547641E0,-3.322337648E0,-2.326978552E0,5.411121892E0
4.042777208E0,3.105350983E0,-5.039027538E0,-1.149852912E0,6.029690289E0
4.052732208E0,2.578846636E0,-5.039511688E0,-8.619544315E-1,5.726263482E0
4.062687208E0,1.911073120E0,-3.253094920E0,-2.543728259E0,4.550316525E0
4.072642042E0,1.081774218E0,-1.208417746E0,-1.963482883E0,2.546718269E0
4.082597042E0,1.194193079E0,4.590666550E-1,-9.447971982E-1,1.590434233E0
4.092552042E0,1.876289934E0,1.316888859E0,-7.372432619E-2,2.293489800E0
4.102507042E0,2.510674241E0,1.333031268E0,5.843145990E-1,2.902047735E0
4.112462042E0,3.003212405E0,1.377727384E0,1.026313232E0,3.459875192E0
4.122417042E0,3.294111968E0,1.259102581E0,9.851003015E-1,3.661548248E0
4.132372042E0,2.991558904E0,1.274929824E0,3.571355067E-1,3.271454799E0
4.142327042E0,2.326685168E0,1.022250001E0,-7.050373828E-1,2.637335142E0
4.152281042E0,1.251537746E0,7.162429869E-1,-1.798461009E0,2.305170871E0
4.162236042E0,3.360789523E-2,7.896120948E-1,-1.780329816E0,1.947868324E0
4.172191042E0,-6.085045302E-1,1.099385301E0,-1.315915298E0,1.819494126E0
4.182146042E0,-1.094604179E0,1.475820274E0,-1.385058184E0,2.300997602E0
4.192101042E0,-7.461668439E-1,1.709858589E0,-1.068673824E0,2.149987231E0
4.202056042E0,-1.937556767E-1,1.700524678E0,-3.014773227E-1,1.737876296E0
4.212011042E0,3.403358714E-1,1.631098933E0,3.419948727E-1,1.700962294E0
4.221966042E0,5.272403656E-1,1.438468260E0,6.949906238E-1,1.682315460E0
4.231921042E0,6.660378432E-1,1.084488350E0,6.853264189E-1,1.445473517E0
4.241876042E0,5.601097575E-1,7.139596492E-1,6.244400932E-1,1.101538357E0
4.251831042E0,-2.295977931E-1,6.006926501E-1,4.627585870E-1,7.922703556E-1
4.261786042E0,-4.854166938E-1,8.689430237E-1,1.044586804E-1,1.000801160E0
4.271740042E0,-4.955676795E-1,1.178469477E0,-2.373349019E-1,1.300271314E0
4.281695042E0,-7.866919953E-1,1.073876238E0,-3.193042042E-1,1.368959329E0
4.291650042E0,-9.697667094E-1,6.466962039E-1,-3.322967539E-1,1.212057995E0
4.301605042E0,-9.711275757E-1,2.962456727E-1,2.640372355E-2,1.015651231E0
4.311560042E0,-8.996403211E-1,3.588436246E-3,7.013325870E-1,1.140715995E0
4.321515042E0,-9.024820679E-1,-2.512221122E-1,1.424406876E0,1.704852305E0
4.331470042E0,-9.485685061E-1,-5.838561773E-2,2.046925428E0,2.256788603E0
4.341425042E0,-6.418283238E-1,4.420343006E-1,2.447051564E0,2.568150946E0
4.351380042E0,-4.038911222E-1,9.364140451E-1,2.676423801E0,2.864130525E0
4.361335042E0,-3.833550795E-1,1.802700679E0,2.790977772E0,3.344584844E0
4.371290042E0,-2.014903444E0,2.399348225E0,3.581299134E0,4.758404279E0
4.381244042E0,-1.796262894E0,3.437083408E0,3.993070586E0,5.566391600E0
4.391199042E0,-1.825962657E0,4.410026178E0,4.034648967E0,6.249869023E0
4.401154042E0,-1.496662382E0,4.564808409E0,4.442191712E0,6.542976486E0
4.411109042E0,-1.449120718E0,3.603768230E0,3.766479285E0,5.410495588E0
4.421064042E0,-1.065817678E0,1.903113744E0,3.628974992E0,4.234060550E0
4.431019042E0,-5.048232371E-1,-2.431149477E-1,3.758136477E0,3.799676455E0
4.440974042E0,2.587204354E-1,-2.235264829E0,3.921379044E0,4.521123613E0
4.450929042E0,2.274388183E-1,-3.837548098E0,3.662718104E0,5.309802984E0
4.460884042E0,-5.109288266E-1,-4.395022223E0,3.328361449E0,5.536719114E0
4.470839042E0,-1.775191722E0,-3.410698432E0,2.771446903E0,4.739734948E0
4.480794042E0,-2.517819538E0,-1.275337960E0,2.498418185E0,3.769349488E0
4.490749042E0,-3.112365888E0,3.927750170E-1,2.602125571E0,4.075800672E0
4.500703042E0,-3.627962839E0,1.314138914E0,2.666482365E0,4.690330868E0
4.510658042E0,-3.576012082E0,1.557423431E0,2.419630462E0,4.589993652E0
4.520613042E0,-2.993523569E0,1.214101240E0,1.819541245E0,3.707553845E0
4.530568042E0,-1.802642499E0,5.994226348E-1,8.135324693E-1,2.066558142E0
4.540523042E0,-7.475745611E-2,-7.108577013E-2,3.092013484E-1,3.259560366E-1
4.550478042E0,1.737336701E0,-5.837059039E-1,6.391281527E-1,1.941014217E0
4.560433042E0,2.582064943E0,-1.938414554E0,1.178930238E0,3.437206258E0
4.570388042E0,3.618590629E0,-3.801239812E0,5.443787009E-1,5.276359581E0
4.580343042E0,4.806948333E0,-5.762492421E0,-7.055835128E-1,7.537301856E0
4.590298042E0,5.637470180E0,-7.174737089E0,-1.265454850E0,9.211910676E0
4.600253042E0,3.938279251E0,-7.406312556E0,-1.374217300E0,8.500116607E0
4.610207042E0,2.255692077E-1,-7.423626162E0,-8.469833668E-1,7.475191481E0
4.620162042E0,-2.291914993E0,-7.529021055E0,-1.955308914E-2,7.870159763E0
4.630117042E0,-3.613134592E0,-6.716391395E0,-9.149553484E-1,7.681262803E0
4.640072042E0,-4.764953923E0,-5.169977102E0,-3.752583961E0,7.969650903E0
4.650027042E0,-6.430666033E0,-3.237879295E0,-8.593945790E0,1.121129931E1
4.659982042E0,-5.576793038E0,-1.290884537E0,-1.009893665E1,1.160842474E1
4.669937042E0,-4.057775874E0,1.318119113E0,-7.022494304E0,8.216958640E0
4.679892042E0,-4.787174512E0,2.773173001E0,-4.545840918E0,7.160460736E0
4.689847042E0,-6.089291550E0,3.434348665E0,-1.712463523E0,7.197690855E0
4.699802042E0,-3.910218464E0,2.783802654E0,-3.307670492E-1,4.811317126E0
4.709757042E0,-8.577631474E-1,1.277554055E0,-1.758577005E0,2.336770220E0
4.719711042E0,1.553648614E0,3.871651983E-1,-1.342108777E0,2.089252708E0
4.729666042E0,2.927861676E0,-1.018818855E-1,-2.057459772E-1,2.936849556E0
4.739621042E0,3.902570305E0,-3.478613842E-1,-8.005191985E-1,3.998986561E0
4.749576042E0,3.488482187E0,7.902979732E-2,-1.792022201E0,3.922639067E0
4.759531042E0,2.811944134E0,8.267834294E-1,-2.614607622E0,3.927693174E0
4.769486042E0,1.332034610E0,1.591026210E0,-3.152329560E0,3.773971682E0
4.779441042E0,4.690709487E-1,2.053799415E0,-3.764523391E0,4.313902636E0
4.789396042E0,1.252175677E0,1.875005009E0,-3.937849189E0,4.537647402E0
4.799351042E0,1.962289028E0,1.645530446E0,-3.335080485E0,4.204891261E0
4.809306042E0,2.383046772E0,1.522779847E0,-2.735961028E0,3.934876508E0
4.819261042E0,2.429963661E0,1.433079466E0,-2.380069078E0,3.690957730E0
4.829215042E0,2.543794332E0,1.454922325E0,-2.151659878E0,3.635564441E0
4.839170042E0,2.492466596E0,1.381991758E0,-1.780593526E0,3.360476790E0
4.849125042E0,2.593338375E0,1.491681431E0,-1.369829257E0,3.290433043E0
4.859080042E0,2.801926391E0,1.726727221E0,-9.390157637E-1,3.422590978E0
4.869035042E0,2.790713771E0,1.997021196E0,-5.990656623E-1,3.483540825E0
4.878990042E0,2.450996681E0,2.330478550E0,-1.353665507E-1,3.384795282E0
4.888945042E0,1.885192320E0,2.805719188E0,4.153517014E-1,3.405661064E0
4.898900042E0,1.183337284E0,3.324309329E0,6.727139747E-1,3.592194835E0
4.908855042E0,4.543083371E-1,3.565466044E0,8.316632232E-1,3.689255737E0
4.918810042E0,-4.308807367E-1,3.805123533E0,1.313921982E0,4.048581762E0
4.928765042E0,-1.733593022E0,3.819293091E0,1.199212475E0,4.362390977E0
4.938719042E0,-3.572555501E0,3.371891631E0,4.359683990E-1,4.931822627E0
4.948674042E0,-6.218002800E0,2.142960683E0,1.996669194E-1,6.579947278E0
4.958629042E0,-7.317003939E0,4.760481387E-1,-1.470640518E-1,7.333948207E0
4.968584042E0,-7.569869703E0,-7.289653587E-1,-1.391374201E-1,7.606160466E0
4.978539042E0,-7.417340990E0,-1.621014240E0,2.509630805E0,7.996429284E0
4.988494042E0,-4.090707100E0,-2.686802024E0,3.793419746E0,6.192158192E0
4.998449042E0,-1.331746488E0,-2.428777261E0,2.501785596E0,3.732484275E0
5.008404042E0,-1.341851939E0,-1.213092595E-1,2.172977072E0,2.556777643E0
5.018359042E0,-1.960458557E0,1.370401407E0,1.676046187E0,2.920706865E0
5.028314042E0,-2.467092311E0,2.131719410E0,8.084795979E-1,3.359227795E0
5.038268042E0,-2.051326627E0,1.698610300E0,-4.126862481E-2,2.663629288E0
5.048223042E0,-1.227959433E0,-4.789816868E-1,-1.509041814E0,2.003625470E0
5.058178042E0,-3.212961678E-1,-2.970973197E0,-2.334160541E0,3.791862128E0
5.068133542E0,-7.134772539E-2,-4.296890742E0,-1.997739527E0,4.739126899E0
5.078088542E0,-1.480509010E0,-5.625859364E0,-2.731792548E0,6.426888130E0
5.088043542E0,-2.910515326E0,-8.154341592E0,-4.316447924E0,9.674508202E0
5.097998542E0,-2.188236843E0,-9.574491110E0,-5.991930147E0,1.150488972E1
5.107953542E0,-4.829984316E-1,-8.440787916E0,-7.205601617E0,1.110859500E1
5.117908542E0,7.296497753E-1,-5.633512784E0,-5.206108217E0,7.705349950E0
5.127863542E0,2.582369291E0,-2.472129103E0,-7.809386274E-1,3.659223770E0
5.137818542E0,3.848880879E0,-2.074100947E-1,2.457698175E0,4.571343707E0
5.147772542E0,5.285339159E0,1.262182894E0,2.961752138E0,6.188690605E0
5.157727542E0,6.131851094E0,2.008790472E0,2.992194789E0,7.112528851E0
5.167682542E0,5.497525259E0,6.674941653E-1,3.646638261E0,6.630709091E0
5.177637542E0,4.975889304E0,-1.973219520E0,1.776846630E0,5.640057942E0
5.187592542E0,4.990031379E0,-3.950730312E0,-3.109730548E-1,6.372235668E0
5.197547542E0,4.074214444E0,-4.438506212E0,-2.671749537E0,6.590736401E0
5.207502542E0,2.388478690E0,-3.456538264E0,-2.904645014E0,5.107783264E0
5.217457542E0,1.634693508E0,-2.595680770E0,-2.492597866E0,3.952572029E0
5.227412542E0,1.270729185E0,-1.708097992E0,-2.144106152E0,3.021513297E0
5.237367542E0,6.884877160E-1,-5.031780499E-1,-1.593528818E0,1.807356517E0
5.247321542E0,8.596542831E-1,6.055119252E-1,-1.131939089E0,1.544971288E0
5.257276542E0,1.213542685E0,1.015642063E0,-4.033986770E-1,1.633078424E0
5.267231542E0,1.692922275E0,1.380422366E0,1.110750242E-1,2.187210414E0
5.277186542E0,1.669319550E0,2.020191373E0,2.595684278E-1,2.633472368E0
5.287141542E0,1.580018095E0,2.636231795E0,1.300344747E-1,3.076212643E0
5.297096542E0,1.521856426E0,2.622040603E0,-1.210268390E-1,3.034104711E0
5.307051542E0,1.078195138E0,2.456698886E0,-3.310645263E-1,2.703234709E0
5.317006542E0,4.770680393E-1,2.188108789E0,-2.888448519E-1,2.258062296E0
5.326961542E0,-2.330242614E-1,1.728664988E0,-1.109608573E-1,1.747825867E0
5.336916542E0,-3.277873081E-1,1.340970617E0,8.401513338E-2,1.383005878E0
5.346871542E0,-5.606807381E-2,1.042731628E0,1.614047136E-1,1.056638235E0
5.356825542E0,2.152189051E-1,9.350528133E-1,2.168274741E-1,9.836956309E-1
5.366780542E0,3.265687484E-1,9.400130063E-1,1.296274354E-1,1.003531201E0
5.376735542E0,1.655620109E-1,9.139186370E-1,4.909906983E-2,9.300907339E-1
5.386690542E0,-3.282508461E-1,8.585729867E-1,1.442057866E-1,9.304254405E-1
5.396645542E0,-8.605284418E-1,6.759539169E-1,1.209952641E-1,1.100937215E0
5.406600542E0,-1.211419999E0,4.551162761E-1,1.912513143E-1,1.308146133E0
5.416555542E0,-1.196875197E0,3.977287781E-1,5.346453891E-1,1.369870107E0
5.426510542E0,-1.287091448E0,4.537269777E-1,9.971116519E-1,1.690178752E0
5.436465542E0,-1.319201725E0,6.476867223E-1,1.470142043E0,2.078727714E0
5.446420542E0,-1.275816701E0,8.892995203E-1,1.752569575E0,2.343088135E0
5.456374542E0,-1.108631795E0,1.222603676E0,1.851697422E0,2.480445031E0
5.466329542E0,-1.009387296E0,1.448349470E0,1.894874432E0,2.589812351E0
5.476284542E0,-1.029076406E0,1.742171472E0,2.082367741E0,2.903517711E0
5.486239542E0,-7.613272123E-1,2.040514541E0,2.413441769E0,3.250849102E0
5.496194542E0,-4.388539269E-1,2.151681220E0,2.617324823E0,3.416535390E0
5.506149542E0,-2.947563138E-1,2.359015886E0,2.951571550E0,3.789935600E0
5.516104542E0,-5.009047987E-1,2.601105232E0,3.142848008E0,4.110249097E0
5.526059542E0,-1.029848970E0,2.553518252E0,3.064032218E0,4.119385609E0
5.536014542E0,-1.564350335E0,2.239321627E0,3.409030806E0,4.368437290E0
5.545969542E0,-1.724143921E0,1.782090998E0,3.153201088E0,4.011383513E0
5.555923542E0,-7.321368154E-1,8.381890082E-1,2.840555145E0,3.050793120E0
5.565878542E0,6.802869230E-1,-2.274894333E-1,2.706335818E0,2.799784866E0
5.575833542E0,1.509861594E0,-6.591572052E-1,3.618156474E0,3.975578766E0
5.585788542E0,1.042620385E0,-3.416785383E-1,4.048285843E0,4.194331861E0
5.595743542E0,3.689810885E-1,-4.026275754E-2,3.775970485E0,3.794169374E0
5.605698542E0,5.667589188E-2,2.430629075E-2,3.904066608E0,3.904553628E0
5.615653542E0,-5.484281901E-1,1.423352623E-1,3.865859731E0,3.907160640E0
5.625608542E0,-1.308343884E0,-3.047919631E-2,3.213521549E0,3.469785793E0
5.635563542E0,-1.854147990E0,-7.744654673E-1,2.486292813E0,3.196766098E0
5.645518542E0,-1.603305509E0,-1.790753648E0,1.772296911E0,2.986372971E0
5.655473542E0,-3.308872095E-1,-2.712519833E0,1.194900153E0,2.982454788E0
5.665427542E0,1.133736962E0,-3.368090941E0,2.424847640E-2,3.553868888E0
5.675382542E0,3.252333320E0,-4.122623835E0,-1.010674780E0,5.347444513E0
5.685337542E0,5.322995228E0,-5.326291888E0,-1.436548035E0,7.665985502E0
5.695292542E0,5.720036373E0,-6.176524991E0,-1.256613421E0,8.511601163E0
5.705247542E0,4.053967583E0,-5.195315427E0,-3.396624184E-1,6.598585159E0
5.715202542E0,1.231192359E0,-4.339294749E0,1.091610843E0,4.640789564E0
5.725157542E0,-1.261932341E0,-4.290727776E0,2.053751175E0,4.921454254E0
5.735112542E0,-3.271875007E0,-4.368849501E0,6.267963749E-1,5.494077331E0
5.745067542E0,-4.319174480E0,-4.669962396E0,-2.893156112E0,6.988144908E0
5.755021542E0,-3.902843955E0,-4.358089455E0,-4.838456932E0,7.591824558E0
5.764976542E0,-4.409967706E0,-1.958538916E0,-6.690598158E0,8.249108653E0
5.774931542E0,-3.827551990E0,6.231763637E-1,-4.692212221E0,6.087311274E0
5.784886542E0,-3.894792632E0,5.824253637E-1,-2.940352205E0,4.914702436E0
5.794841542E0,-2.309616269E0,6.846253377E-1,-2.651003031E0,3.582018458E0
5.804796542E0,-6.771224830E-1,1.136230946E0,-4.409888184E-1,1.394269255E0
5.814751542E0,1.219870103E0,1.243951276E0,2.366737134E0,2.938867555E0
5.824706542E0,2.621800867E0,6.909251279E-1,1.690495972E0,3.195151632E0
5.834661542E0,3.928478733E0,1.985129714E-2,1.163509668E-1,3.930251491E0
5.844616542E0,3.740141379E0,-4.379424191E-1,-9.795527557E-1,3.891012040E0
5.854570542E0,3.259498498E0,-3.800701869E-1,-1.144879855E0,3.475562356E0
5.864525542E0,3.221330506E0,-1.741341752E-1,-7.321889287E-1,3.308080042E0
5.874480542E0,2.556316729E0,2.277315080E-2,-1.178056956E0,2.814798755E0
5.884435542E0,2.689888477E0,1.315044647E-1,-1.602173342E0,3.133648490E0
5.894390542E0,3.414269619E0,3.021431744E-2,-1.514408681E0,3.735181868E0
5.904345542E0,3.906981737E0,7.247039080E-2,-1.368578246E0,4.140382189E0
5.914300542E0,3.998367286E0,3.107239634E-1,-1.346772809E0,4.230518566E0
5.924255542E0,3.858653915E0,4.416969162E-1,-1.407973861E0,4.131185858E0
5.934210542E0,3.511108573E0,5.381712967E-1,-1.372356424E0,3.808001301E0
5.944165542E0,3.184336926E0,6.246369982E-1,-1.028036991E0,3.403973134E0
5.954119542E0,2.921707189E0,8.086523831E-1,-5.782633156E-1,3.086208035E0
5.964074542E0,2.685773499E0,1.046270948E0,-2.333866426E-1,2.891804196E0
5.974029542E0,2.287337208E0,1.297780159E0,-1.037174727E-1,2.631900864E0
5.983984542E0,1.722154698E0,1.473830466E0,-3.658278313E-1,2.296045089E0
5.993939542E0,9.295628625E-1,1.641425700E0,-7.777273366E-1,2.040398308E0
6.003894542E0,-1.404892963E-1,2.056664550E0,-7.710401684E-1,2.200933724E0
6.013849542E0,-1.600351057E0,2.311502581E0,-5.435609677E-1,2.863498945E0
6.023804542E0,-3.503072452E0,2.497444038E0,-3.690910162E-1,4.317982342E0
6.033759542E0,-4.956977069E0,2.572560294E0,-3.836928293E-1,5.597937863E0
6.043714542E0,-4.618196703E0,2.158872710E0,8.415283531E-1,5.166879343E0
6.053668542E0,-2.385088913E0,1.739988706E0,3.182365245E0,4.340928285E0
6.063623542E0,4.173608047E-1,7.503112042E-1,5.075762086E0,5.147865353E0
6.073578333E0,2.397009631E0,-6.316068792E-1,5.407345991E0,5.948442913E0
6.083533333E0,3.555607931E0,-1.261892872E0,4.393291447E0,5.791004327E0
6.093488333E0,4.262297444E0,-1.328739996E0,3.018829148E0,5.389439573E0
6.103443333E0,4.433116833E0,-6.993176365E-1,1.563081197E0,4.752346035E0
6.113398333E0,2.669574665E0,2.783146012E-1,4.210128294E-1,2.716862108E0
6.123353333E0,-4.132279927E-1,2.373117616E0,8.187844384E-1,2.544180133E0
6.133308333E0,-2.333714691E0,3.674398502E0,1.533201194E0,4.614990196E0
6.143262333E0,-3.267110403E0,3.282651426E0,1.909513521E0,5.009596057E0
6.153217333E0,-1.528907437E0,2.271703507E0,1.915310889E0,3.341647884E0
6.163172333E0,1.047144814E0,8.589641654E-1,1.392671698E0,1.942644115E0
6.173127333E0,1.971476758E0,-1.540232032E0,3.182241138E-1,2.521963899E0
6.183082333E0,9.721589515E-1,-4.437641993E0,-2.206626044E0,5.050441365E0
6.193037333E0,-1.309262044E0,-6.643466091E0,-5.523290430E0,8.738223274E0
6.202992333E0,-2.616410026E0,-8.125424187E0,-6.448128743E0,1.069796635E1
6.212947333E0,-1.766108803E0,-9.066572138E0,-4.423118094E0,1.024137902E1
6.222902333E0,-1.070977773E0,-6.752338323E0,-2.377569101E0,7.238363147E0
6.232857333E0,7.392400861E-2,-2.020001339E0,-1.033433971E0,2.270210550E0
6.242811333E0,2.044818384E0,1.251564935E0,4.698915323E-1,2.443050360E0
6.252766333E0,3.735831689E0,2.950789778E0,1.880884969E0,5.118723179E0
6.262721333E0,3.995188447E0,3.764842064E0,3.550722874E0,6.537828342E0
6.272676333E0,3.670210434E0,2.923052341E0,5.212467649E0,7.013166090E0
6.282631333E0,3.179183483E0,1.065883094E-1,6.575101615E0,7.304144709E0
6.292586333E0,3.814791904E0,-1.828111508E0,7.134087245E0,8.293963455E0
6.302541333E0,4.598958779E0,-2.833087665E0,4.616146962E0,7.105323381E0
6.312496333E0,4.614433143E0,-3.171379496E0,2.427866411E0,6.102882635E0
6.322451333E0,5.042201407E0,-3.173120797E0,2.919032380E-2,5.957628949E0
6.332405333E0,3.609200878E0,-3.434314166E0,-3.036157957E0,5.834303721E0
6.342360333E0,1.672971429E0,-3.541421124E0,-4.463872018E0,5.938573092E0
6.352315333E0,8.274696001E-1,-3.089973975E0,-4.296310113E0,5.356391107E0
6.362270333E0,5.552103755E-1,-1.915636725E0,-3.197322423E0,3.768393995E0
6.372225333E0,2.726585895E-2,-7.942822659E-1,-1.758628022E0,1.929870530E0
6.382180333E0,-3.596446931E-1,-7.168744862E-2,-1.367930374E0,1.416233351E0
6.392135333E0,-5.908348292E-2,5.856290531E-1,-1.558782324E0,1.666209644E0
6.402090333E0,2.447818427E-1,8.693622690E-1,-1.197166534E0,1.499638828E0
6.412045333E0,3.731599474E-1,9.450305021E-1,-1.308432177E-1,1.024427130E0
6.422000333E0,5.509530178E-1,8.067093533E-1,9.296412152E-1,1.348540692E0
6.431954333E0,9.902079906E-1,7.914071900E-1,1.491253415E0,1.957210758E0
6.441909333E0,1.453975368E0,9.414584380E-1,1.294270660E0,2.162296211E0
6.451864333E0,2.083902635E0,1.008413735E0,9.025925072E-1,2.484798118E0
6.461819333E0,2.517590620E0,1.080037449E0,8.223097247E-1,2.860233680E0
6.471774333E0,2.481909156E0,1.187782922E0,1.240136552E0,3.018052352E0
6.481729333E0,2.068934055E0,1.010706428E0,1.094930892E0,2.549684151E0
6.491684333E0,1.626913349E0,6.249749672E-1,6.466500109E-1,1.858923611E0
6.501639333E0,1.042793901E0,3.887340063E-1,1.940544695E-1,1.129685968E0
6.511594333E0,4.951495305E-1,3.390677565E-1,-1.446794111E-1,6.173104025E-1
6.521548333E0,-3.032439128E-2,4.545853490E-1,-1.731611985E-1,4.873932795E-1
6.531503333E0,-3.957214290E-1,6.641372788E-1,1.345035017E-2,7.732106352E-1
6.541458333E0,-5.149465947E-1,8.401624435E-1,3.784926081E-1,1.055603894E0
6.551413333E0,-5.065229496E-1,8.362208354E-1,9.791373110E-1,1.383669273E0
6.561368333E0,-4.591290741E-1,6.706961006E-1,1.706360199E0,1.890052353E0
6.571323333E0,-3.944588690E-1,4.037666130E-1,2.296663517E0,2.365013443E0
6.581278333E0,-3.696609735E-1,1.850433254E-1,2.645182128E0,2.677289442E0
6.591233333E0,-2.263927880E-1,9.606390595E-2,2.711671987E0,2.722801302E0
6.601188333E0,3.173196226E-2,1.005381954E-1,2.627762103E0,2.629876141E0
6.611142333E0,1.082245065E-1,1.900824559E-1,2.221589946E0,2.232331913E0
6.621097333E0,1.765458593E-1,4.750529426E-1,1.663984258E0,1.739450301E0
6.631052333E0,2.745809347E-1,7.079644990E-1,1.201680000E0,1.421493315E0
6.641007333E0,3.647677311E-1,8.468013722E-1,9.944570160E-1,1.356124190E0
6.650962333E0,2.665022023E-1,5.712858331E-1,9.205763499E-1,1.115729243E0
6.660917333E0,4.102241318E-1,-7.229497433E-3,1.224805738E0,1.291698571E0
6.670872333E0,4.670695198E-1,-6.016685504E-1,1.915118662E0,2.061028498E0
6.680827333E0,5.377006689E-1,-1.054342445E0,2.727775218E0,2.973468958E0
6.690782333E0,4.108578238E-1,-1.262920228E0,3.315068389E0,3.571197289E0
6.700736333E0,2.870231518E-1,-1.353862558E0,4.280968773E0,4.499113219E0
6.710691333E0,-1.226205707E-1,-1.209517608E0,4.909744431E0,5.058019279E0
6.720646333E0,-6.210750206E-1,-1.195719348E0,5.393096327E0,5.558863816E0
6.730601333E0,-1.255926958E0,-1.473748021E0,5.307815856E0,5.649973001E0
6.740556333E0,-1.583883543E0,-1.366291400E0,4.863994646E0,5.294703314E0
6.750511333E0,-1.847887084E0,-1.068150060E0,4.324163325E0,4.822242184E0
6.760466333E0,-2.262157928E0,-9.717207026E-1,3.576435421E0,4.341945409E0
6.770421333E0,-2.796858025E0,-1.020702828E0,2.437423539E0,3.847763322E0
6.780376333E0,-3.305992633E0,-1.107479017E0,1.293411119E0,3.718737607E0
6.790330333E0,-3.314281939E0,-1.057347913E0,6.603202895E-1,3.540970526E0
6.800285333E0,-2.473144764E0,-7.949851012E-1,8.236446440E-1,2.725222346E0
6.810240333E0,-1.366546777E0,-6.511447656E-1,1.480920800E0,2.117679394E0
6.820195333E0,-4.842229848E-1,-8.427217698E-1,1.581850759E0,1.856583880E0
6.830150333E0,4.731188299E-1,-1.459661493E0,1.401940119E0,2.078434315E0
6.840105333E0,2.049146785E0,-1.988658509E0,1.093766127E0,3.057791613E0
6.850060333E0,3.356233080E0,-1.750248231E0,1.100094568E0,3.941811438E0
6.860015333E0,4.784122265E0,6.344696760E-2,1.240240048E0,4.942676071E0
6.869970333E0,5.472057711E0,1.874139036E0,1.606276333E0,6.002993951E0
6.879924333E0,4.756898214E0,2.011126435E0,1.307499400E0,5.327500806E0
6.889879333E0,4.153836856E0,4.644858545E-1,1.419879962E0,4.414313859E0
6.899834333E0,4.189710109E0,-1.774490787E0,3.606387198E0,5.805903631E0
6.909789333E0,3.177819327E0,-3.697337714E0,4.755089670E0,6.810265752E0
6.919744333E0,1.283537511E0,-4.305597830E0,2.949238511E0,5.374351032E0
6.929699333E0,-5.139551993E-1,-3.765944265E0,5.501522416E-1,3.840462686E0
6.939654333E0,-2.292032961E0,-3.329618016E0,-3.193305386E0,5.151404712E0
6.949609333E0,-3.068643333E0,-2.316356354E0,-5.662555904E0,6.844458929E0
6.959564333E0,-3.832996625E0,-1.316362025E0,-4.950586647E0,6.397888735E0
6.969518333E0,-2.583893368E0,1.124700236E-1,-3.887520157E0,4.669257694E0
6.979473333E0,-1.411117032E0,7.258353442E-1,-2.698675380E0,3.130644827E0
6.989428333E0,-6.332712892E-1,1.251027576E0,-1.834759793E-1,1.414130813E0
6.999383333E0,-1.494611178E-1,1.910743775E0,1.065981327E0,2.193079249E0
7.009338333E0,8.875082257E-1,1.035014473E0,4.496577542E-1,1.435659398E0
7.019293333E0,1.559112399E0,2.184549004E-1,-4.768199712E-2,1.575064313E0
7.029248333E0,2.011215020E0,8.462616742E-2,-1.970239779E-1,2.022613629E0
7.039203333E0,2.219866186E0,1.637442577E-1,-1.387902416E-1,2.230219899E0
7.049158333E0,2.224971975E0,3.706731266E-1,1.201045869E-1,2.258832435E0
7.059112333E0,1.911095485E0,6.404005069E-1,4.807405293E-2,2.016112566E0
7.069067167E0,1.035734850E0,7.170697832E-1,-1.488902834E-1,1.268504659E0
7.079022167E0,1.293766630E-1,7.690228790E-1,-2.043233496E-1,8.061529263E-1
7.088977167E0,3.177721971E-1,6.375078893E-1,-7.162839174E-5,7.123169823E-1
7.098932167E0,1.287778496E0,3.822593844E-1,5.117851514E-1,1.437504690E0
7.108887167E0,2.289143705E0,1.216758800E-1,7.562075365E-1,2.413883543E0
7.118842167E0,3.013001229E0,-2.440043092E-3,5.081440902E-1,3.055551141E0
7.128797167E0,3.508462416E0,-5.423117101E-2,9.936758280E-3,3.508895593E0
7.138752167E0,3.734707854E0,6.985493124E-2,-4.534153211E-1,3.762779281E0
7.148706167E0,3.695218098E0,2.701273298E-1,-5.898574671E-1,3.751737917E0
7.158661167E0,3.407314648E0,4.815123618E-1,-5.484059706E-1,3.484594148E0
7.168616167E0,3.090829715E0,6.452829319E-1,-4.944107348E-1,3.195944362E0
7.178571167E0,2.709733050E0,6.255298680E-1,-4.998927918E-1,2.825567840E0
7.188526167E0,2.128776214E0,5.821926445E-1,-5.552267477E-1,2.275722564E0
7.198481167E0,1.639957172E0,5.423567337E-1,-5.068442541E-1,1.800139286E0
7.208436167E0,9.013406914E-1,6.164871490E-1,-5.080976048E-1,1.204422942E0
7.218391167E0,3.390586933E-1,6.959432083E-1,-5.866721964E-1,9.713300226E-1
7.228345167E0,-1.811680833E-1,1.029056160E0,-5.564532012E-1,1.183815282E0
7.238300167E0,-8.842323232E-1,1.498422101E0,-2.685918510E-1,1.760476406E0
7.248255167E0,-1.859858966E0,1.853468544E0,2.753962559E-1,2.640125776E0
7.258210167E0,-2.706466503E0,1.915536738E0,8.455744801E-1,3.421876404E0
7.268165167E0,-3.164577723E0,1.703478692E0,1.354834365E0,3.840829074E0
7.278120167E0,-2.870944878E0,1.462442429E0,1.865827657E0,3.723221079E0
7.288075167E0,-1.927013068E0,1.345418009E0,2.112018387E0,3.159770664E0
7.298030167E0,-7.364781538E-1,1.087903708E0,2.282810878E0,2.633848905E0
7.307985167E0,5.984633991E-1,5.822283125E-1,2.411484413E0,2.551941481E0
7.317939167E0,2.007554955E0,1.695616525E-1,2.580584428E0,3.273903487E0
7.327894167E0,3.056339037E0,-3.495407045E-2,2.538680357E0,3.973327076E0
7.337849167E0,3.111370107E0,-6.644541979E-2,2.512395954E0,3.999646530E0
7.347804167E0,1.832109250E0,7.394885927E-1,2.467317429E0,3.160873768E0
7.357759167E0,-1.421455202E-1,1.610728403E0,2.434450084E0,2.922532899E0
7.367714167E0,-1.556249310E0,1.880285629E0,2.075886541E0,3.204167738E0
7.377669167E0,-1.731802604E0,1.354100540E0,1.616457358E0,2.728674206E0
7.387624167E0,-1.081921714E0,8.911858320E-2,9.030264437E-1,1.412074175E0
7.397578167E0,4.551683164E-1,-1.812909333E0,-7.824831694E-1,2.026350995E0
7.407533167E0,2.120089298E0,-4.256021043E0,-2.809050931E0,5.522613592E0
7.417488167E0,2.140272133E0,-6.368825880E0,-3.323835120E0,7.496038140E0
7.427443167E0,3.663303995E-1,-7.124422383E0,-1.858233001E0,7.371880502E0
7.437398167E0,-1.433612732E0,-7.252987452E0,-1.787150301E-1,7.395472366E0
7.447353167E0,-1.747103306E0,-7.146673962E0,7.225410229E-1,7.392522182E0
7.457308167E0,-4.380000141E-1,-5.780787774E0,-5.855942622E-2,5.797653017E0
7.467263167E0,1.336191103E0,-3.390621432E0,-1.313653741E0,3.873939405E0
7.477218167E0,3.547179462E0,-1.313521448E0,-1.785472004E0,4.182789859E0
7.487172167E0,4.254038545E0,1.292655659E-1,-1.880606641E0,4.652981288E0
7.497127167E0,4.113191106E0,1.793840393E0,-1.406192799E0,4.702508120E0
7.507082167E0,3.722251238E0,2.661630346E0,-4.582831281E-1,4.598853531E0
7.517037167E0,3.268724820E0,2.379710936E0,1.110907824E0,4.193054052E0
7.526992167E0,2.266462356E0,1.387120351E0,1.723312447E0,3.167137551E0
7.536947167E0,1.836950160E0,-3.014403391E-1,9.136566818E-1,2.073649126E0
7.546902167E0,1.537638792E0,-1.388932403E0,-8.390812933E-1,2.235514190E0
7.556857167E0,2.028701703E0,-1.518282169E0,-1.725280912E-1,2.539798671E0
7.566811167E0,2.162858757E0,-1.266700453E0,1.673910491E0,3.014044521E0
7.576766167E0,1.339090445E0,-8.434515023E-1,1.520276654E0,2.194496471E0
7.586721167E0,1.923858495E0,2.256990159E-1,1.524728140E0,2.465150595E0
7.596676167E0,1.078224812E0,5.958646041E-1,2.006962633E0,2.354893284E0
7.606631167E0,7.134699449E-1,8.995982212E-1,2.413188000E0,2.672413262E0
7.616586167E0,9.558671468E-1,7.580289441E-1,2.536077177E0,2.814245428E0
7.626541167E0,1.207030202E0,3.402143955E-1,1.686962646E0,2.102025384E0
7.636496167E0,2.183941770E0,-3.139276528E-1,4.245522952E-1,2.246863787E0
7.646450167E0,1.903733549E0,-7.865779746E-1,-7.466386411E-1,2.190975946E0
7.656405167E0,1.244755853E0,-8.744148481E-1,-2.037838855E0,2.542991478E0
7.666360167E0,5.362671509E-1,-7.372216272E-1,-2.651030513E0,2.803398110E0
7.676315167E0,-2.599923509E-1,-3.253957969E-1,-2.284192575E0,2.321855759E0
7.686270167E0,-8.292790210E-1,3.030880845E-1,-1.548498241E0,1.782529911E0
7.696225167E0,-8.924739736E-1,8.387170118E-1,-1.064276864E0,1.622541606E0
7.706180167E0,-4.513537391E-1,1.128647692E0,-6.749885416E-1,1.390386759E0
7.716135167E0,1.833562575E-1,1.212227207E0,-1.115391469E-1,1.231078917E0
7.726090167E0,7.398598909E-1,1.266595788E0,5.404762691E-1,1.563256903E0
7.736044167E0,1.238188406E0,1.103559628E0,1.069365696E0,1.973448092E0
7.745999167E0,1.674140872E0,8.503857154E-1,1.194444655E0,2.225444126E0
7.755954167E0,1.964512285E0,6.369009483E-1,1.175425417E0,2.376252564E0
7.765909167E0,1.819932862E0,2.854107821E-1,1.100657655E0,2.145940868E0
7.775864167E0,1.601748687E0,-1.658808303E-1,6.697482669E-1,1.744040725E0
7.785819167E0,1.323825119E0,-2.727948296E-1,5.832545354E-1,1.472112705E0
7.795774167E0,7.399521308E-1,-1.225886303E-1,6.293504387E-1,9.791011709E-1
7.805729167E0,1.552634561E-1,2.233437574E-1,5.976901048E-1,6.566754421E-1
7.815683167E0,-1.259941949E-1,6.493666273E-1,5.457112813E-1,8.575268838E-1
7.825638167E0,-1.982407835E-1,8.534847397E-1,5.751789093E-1,1.048125177E0
7.835593167E0,-1.430837059E-1,8.572813368E-1,7.440043974E-1,1.144092121E0
7.845548167E0,-5.771757334E-2,7.893109632E-1,1.041356948E0,1.307963076E0
7.855503167E0,1.267638347E-1,6.433591980E-1,1.267083446E0,1.426702697E0
7.865458167E0,2.736369748E-1,4.183653563E-1,1.486280358E0,1.568099508E0
7.875413167E0,4.343092516E-1,2.586650330E-1,1.598980762E0,1.676982887E0
7.885368167E0,4.569283283E-1,3.340227789E-1,1.708794980E0,1.800093053E0
7.895322167E0,2.936993565E-1,5.446114200E-1,1.844491314E0,1.945509989E0
7.905277167E0,-8.774580315E-2,7.593901759E-1,1.962089345E0,2.105746273E0
7.915232167E0,-4.577589253E-1,9.596929801E-1,1.967799736E0,2.236691676E0
7.925187167E0,-7.260557111E-1,1.025299324E0,1.921562294E0,2.295821694E0
7.935142167E0,-9.804054259E-1,1.033176109E0,1.901356655E0,2.375669338E0
7.945097167E0,-1.164391648E0,9.216761380E-1,1.874976357E0,2.391825904E0
7.955052167E0,-1.494343376E0,7.467935193E-1,1.969282590E0,2.582409070E0
7.965007167E0,-1.562032645E0,5.722751820E-1,2.086323967E0,2.668368895E0
7.974962167E0,-1.333036822E0,5.338414335E-1,2.141600035E0,2.578453908E0
7.984916167E0,-1.340286785E0,5.310757005E-1,2.179588226E0,2.613238393E0
7.994871167E0,-1.138005356E0,5.732844114E-1,2.231569973E0,2.569750134E0
8.004826167E0,-6.481162003E-1,1.945760411E-1,2.384929576E0,2.479073119E0
8.014781167E0,-2.416659345E-1,-4.227028209E-1,2.651415260E0,2.695752767E0
8.024736167E0,1.543277554E-2,-8.375341201E-1,3.227293496E0,3.334235277E0
8.034691167E0,3.053876482E-2,-1.212885604E0,3.977534534E0,4.158461864E0
8.044646167E0,-2.314016591E-1,-1.813789923E0,4.597410729E0,4.947682894E0
8.054601167E0,-1.170453676E0,-2.392991132E0,4.748156626E0,5.444387910E0
8.064555167E0,-2.059997317E0,-2.649544736E0,4.345546592E0,5.490669489E0
8.074510208E0,-3.360425241E0,-2.560330258E0,3.600672129E0,5.550908810E0
8.084465208E0,-4.322888047E0,-2.029335834E0,2.802611393E0,5.537164944E0
8.094420208E0,-4.712641515E0,-1.516491752E0,2.177078601E0,5.408179779E0
8.104375208E0,-4.257814384E0,-1.148104302E0,2.001831701E0,4.842980175E0
8.114330208E0,-3.327870868E0,-9.650806046E-1,2.380531300E0,4.203930822E0
8.124285208E0,-2.132433063E0,-9.348756427E-1,2.537833096E0,3.444105117E0
8.134239208E0,-5.545439391E-1,-1.091009164E0,1.754544180E0,2.139216038E0
8.144194208E0,1.695565947E0,-1.315941026E0,1.283013015E0,2.500553351E0
8.154149208E0,3.640768241E0,-1.144789515E0,1.427381939E0,4.074696997E0
8.164104208E0,5.767707553E0,5.056040597E-1,1.051460937E0,5.884526827E0
8.174059208E0,8.495496805E0,3.402462044E0,1.360478098E0,9.252087039E0
8.184014208E0,8.314447128E0,4.300745226E0,1.731340674E0,9.519662865E0
8.193969208E0,7.929798571E0,3.777267982E0,2.288801935E0,9.076787597E0
8.203924208E0,7.401457613E0,2.594058167E0,4.050190281E0,8.826933436E0
8.213879208E0,4.986004402E0,-1.687787104E-1,5.575847543E0,7.481898287E0
8.223833208E0,2.957345968E0,-2.611460066E0,3.852094801E0,5.514005187E0
8.233788208E0,2.262283789E0,-4.426460947E0,1.264167878E0,5.129288926E0
8.243743208E0,-5.555718796E-1,-5.362182682E0,-5.464066614E-1,5.418507495E0
8.253698208E0,-2.634708888E0,-4.958414900E0,-2.617386804E0,6.195020817E0
8.263653208E0,-3.613662011E0,-3.674804884E0,-1.730857109E0,5.436783093E0
8.273608208E0,-4.821515209E0,-1.139513572E0,-1.056547430E0,5.065746990E0
8.283563208E0,-2.894293395E0,2.285559654E-2,-3.058009586E0,4.210567571E0
8.293518208E0,-9.866667706E-1,-1.331241435E-1,-2.465214186E0,2.658667775E0
8.303472208E0,3.357251957E-1,-1.117455536E-1,-9.449347539E-1,1.009009497E0
8.313427208E0,1.718262207E0,-1.958057106E-2,5.542891467E-1,1.805559434E0
8.323382208E0,2.678015998E0,2.155225217E-2,1.542162198E0,3.090388071E0
8.333337208E0,3.128602729E0,1.773980910E-1,1.772031448E0,3.599961190E0
8.343292208E0,3.281875792E0,1.341953534E-1,1.052462857E0,3.449115129E0
8.353247208E0,2.872191505E0,-3.554522395E-2,-7.573342949E-2,2.873409657E0
8.363202208E0,2.121684711E0,-1.647078788E-1,-7.074303558E-1,2.242572721E0
8.373156208E0,1.559732204E0,-2.272695780E-1,-8.907768193E-1,1.810496990E0
8.383111208E0,1.229684070E0,-3.165337569E-1,-8.723838177E-1,1.540574586E0
8.393066208E0,1.259279167E0,-2.821725941E-1,-6.312537074E-1,1.436623345E0
8.403021208E0,1.534035153E0,-3.024045449E-1,-4.165530118E-1,1.618094178E0
8.412976208E0,1.994804517E0,-4.509963280E-1,-2.051209098E-1,2.055411720E0
8.422931208E0,2.536848132E0,-3.999565673E-1,-6.303678542E-2,2.568956469E0
8.432886208E0,3.016118087E0,-1.776723254E-1,3.759788901E-2,3.021580608E0
8.442841208E0,3.390575531E0,1.566270268E-1,3.375217527E-2,3.394359095E0
8.452795208E0,3.597776296E0,3.982988816E-1,-5.517140329E-2,3.620176813E0
8.462750208E0,3.548179920E0,5.847051930E-1,-3.716168672E-2,3.596226064E0
8.472705208E0,3.277244213E0,7.323596674E-1,3.258214742E-2,3.358234940E0
8.482660208E0,2.693849381E0,6.377043557E-1,-4.713001996E-2,2.768702326E0
8.492615208E0,2.099740111E0,4.552472538E-1,-2.189071825E-1,2.159647876E0
8.502570208E0,1.776420076E0,2.565623742E-1,-3.960386404E-1,1.838025882E0
8.512525208E0,1.476473408E0,4.767410338E-2,-6.053099039E-1,1.596448127E0
8.522480208E0,1.321925943E0,-5.046556413E-2,-7.229003343E-1,1.507521100E0
8.532434208E0,1.186977176E0,4.403245747E-2,-5.680641635E-1,1.316643675E0
8.542389208E0,1.114243076E0,5.497189629E-1,-4.027212770E-1,1.306106044E0
8.552344208E0,7.827667594E-1,1.327943020E0,3.627758771E-2,1.541905486E0
8.562299208E0,8.222179234E-2,2.140175654E0,7.426785412E-1,2.266866486E0
8.572254208E0,-8.675198114E-1,2.760262933E0,1.616429292E0,3.314285102E0
8.582209208E0,-1.972005054E0,3.166574255E0,2.415490633E0,4.444163751E0
8.592164208E0,-2.948942642E0,3.268318146E0,3.009247316E0,5.332329286E0
8.602119208E0,-3.443259529E0,3.131602643E0,3.200802101E0,5.648725997E0
8.612073208E0,-3.097145001E0,2.573576540E0,3.194770113E0,5.140248967E0
8.622028208E0,-2.125277825E0,1.420347739E0,3.060540846E0,3.987618814E0
8.631983208E0,-9.346198270E-1,4.651027358E-1,3.314670779E0,3.475180160E0
8.641938208E0,4.164924932E-1,-1.820238233E-1,4.098933840E0,4.124058353E0
8.651893208E0,1.464560583E0,-8.548494798E-1,4.586143144E0,4.889623122E0
8.661848208E0,1.443259761E0,-6.646524185E-1,4.443281633E0,4.718846601E0
8.671803208E0,2.387418151E-3,4.507677019E-1,3.275696163E0,3.306566583E0
8.681757208E0,-1.963658446E0,1.531671124E0,2.039881141E0,3.219174738E0
8.691712208E0,-2.603059663E0,1.516523327E0,2.031828356E0,3.633743122E0
8.701667208E0,-2.134567882E0,2.884776467E-1,2.153162904E0,3.045605012E0
8.711622208E0,-1.137382847E0,-1.082873933E0,1.165872674E0,1.955892326E0
8.721577208E0,2.825304437E-1,-3.153134429E0,-9.344900188E-1,3.300810776E0
8.731532208E0,8.025455511E-1,-5.405714033E0,-1.672230002E0,5.715083267E0
8.741487208E0,-4.450277826E-1,-6.443691291E0,-1.313755921E0,6.591294395E0
8.751442208E0,-1.461579672E0,-7.049057620E0,-1.476585090E0,7.348859231E0
8.761396208E0,-5.652924371E-1,-7.999721915E0,-1.866994762E0,8.234122642E0
8.771351208E0,8.992587903E-1,-6.962766166E0,-1.907251818E0,7.275052477E0
8.781306208E0,1.443802090E0,-3.862917413E0,-2.174135113E0,4.661926522E0
8.791261208E0,2.021968342E0,-6.379920387E-1,-1.348912305E0,2.512957267E0
8.801216208E0,2.642590350E0,2.122762061E0,2.112302269E-1,3.396177370E0
8.811171208E0,3.216597477E0,4.112111126E0,1.690600784E0,5.487630477E0
8.821126208E0,2.557541721E0,4.544203405E0,2.534175662E0,5.797659056E0
8.831080208E0,1.865448612E0,4.130135168E0,1.835312939E0,4.889405752E0
8.841035208E0,1.569171364E0,2.599626471E0,6.769988143E-1,3.111058333E0
8.850990208E0,1.468976400E0,9.380454183E-2,-2.361655319E-1,1.490793451E0
8.860945208E0,8.075858510E-1,-1.844319990E0,-7.994143671E-1,2.166281252E0
8.870900208E0,8.204450476E-1,-2.619171374E0,-3.040454198E-1,2.761454758E0
8.880855208E0,2.227567846E0,-2.540497672E0,1.336998750E-1,3.381429075E0
8.890810208E0,3.322161646E0,-1.777229623E0,-2.362165488E-2,3.767739524E0
8.900765208E0,3.451945276E0,-8.506272054E-1,-1.895649773E-1,3.560256691E0
8.910719208E0,2.540767521E0,-1.407652849E-1,-1.041284589E-1,2.546793513E0
8.920674208E0,1.136174812E0,6.438158655E-1,1.498224758E-1,1.314472840E0
8.930629208E0,7.200217500E-1,1.015633877E0,1.484340252E0,1.937320179E0
8.940584208E0,9.740174890E-1,8.816121858E-1,2.229193080E0,2.587518484E0
8.950539208E0,1.082143908E0,2.797816676E-1,1.021051176E0,1.513888610E0
8.960494208E0,1.422817603E0,-3.561387026E-1,-1.339360294E0,1.986235309E0
8.970449208E0,9.865660523E-1,-8.118133879E-1,-3.069066086E0,3.324382679E0
8.980404208E0,2.445818679E-1,-6.283967578E-1,-3.218365383E0,3.288248548E0
8.990358208E0,-4.246123753E-1,6.270846426E-2,-2.444334363E0,2.481732963E0
9.000313208E0,-9.520285960E-1,3.830353099E-1,-1.636136309E0,1.931325068E0
9.010268208E0,-1.005680746E0,5.536634946E-1,-8.467043815E-1,1.426480052E0
9.020223208E0,-6.137927520E-1,7.045111334E-1,-1.457166340E-1,9.456800817E-1
9.030178208E0,-1.978608607E-1,8.624040824E-1,2.363117123E-1,9.158236440E-1
9.040133208E0,3.911103147E-1,8.955805993E-1,6.511904470E-1,1.174342747E0
9.050088208E0,8.682751255E-1,6.982060808E-1,9.861587206E-1,1.487918831E0
9.060042208E0,1.712510593E0,3.884018844E-1,9.888279746E-1,2.015274006E0
9.069997792E0,2.011124534E0,-8.671420813E-4,7.302260184E-1,2.139591709E0
9.079952792E0,1.761492719E0,-2.090402985E-1,6.695219797E-1,1.895999506E0
9.089907792E0,1.591845405E0,-3.520175850E-1,3.419551482E-1,1.665779546E0
9.099862792E0,1.479319248E0,-4.161282116E-1,-5.269571045E-2,1.537636161E0
9.109817792E0,1.146324848E0,-2.473366374E-1,-1.878534973E-2,1.172855046E0
9.119772792E0,8.124874257E-1,1.035442489E-1,1.957952038E-1,8.421359689E-1
9.129727792E0,5.229871009E-1,4.596484530E-1,3.228230220E-1,7.674678571E-1
9.139681792E0,2.594672710E-1,6.823303056E-1,4.301960278E-1,8.473290582E-1
9.149636792E0,1.048395534E-1,7.658016479E-1,5.781972420E-1,9.652748555E-1
9.159591792E0,1.297772703E-1,5.977222645E-1,9.595093775E-1,1.137880614E0
9.169546792E0,2.549841376E-1,3.809887844E-1,1.532379806E0,1.599486553E0
9.179501792E0,4.881027585E-1,2.799348646E-1,2.197976550E0,2.268856264E0
9.189456792E0,4.985509289E-1,3.985397869E-1,2.718212682E0,2.792143831E0
9.199411792E0,4.248138119E-1,8.751498431E-1,2.793493245E0,2.958032882E0
9.209365792E0,8.913072348E-1,1.685034235E0,2.931376437E0,3.496675103E0
9.219320792E0,-3.550045621E-1,2.128822700E0,3.206547575E0,3.865211725E0
9.229275792E0,-6.065808693E-1,2.769466451E0,3.083502277E0,4.188779186E0
9.239230792E0,-9.855208625E-1,3.147388955E0,2.776108303E0,4.310926341E0
9.249185792E0,-1.243609214E0,2.826321267E0,2.800735606E0,4.168785881E0
9.259140792E0,-9.062236281E-1,1.872241614E0,3.129489459E0,3.757690008E0
9.269095792E0,-3.329890642E-1,7.136947703E-1,3.753313694E0,3.835049625E0
9.279049792E0,4.106191843E-1,-3.823652190E-1,4.517521391E0,4.552231408E0
9.289004792E0,9.851940762E-1,-1.423174868E0,5.121330607E0,5.405928344E0
9.298959792E0,1.118601444E0,-2.215909960E0,5.307431109E0,5.859210793E0
9.308914792E0,4.916409818E-1,-2.593519639E0,4.756778930E0,5.440128745E0
9.318869792E0,-6.063058309E-1,-2.816948766E0,3.984912550E0,4.917553776E0
9.328824792E0,-1.625345419E0,-2.822262715E0,3.334989853E0,4.661445257E0
9.338779792E0,-2.333308602E0,-2.350947313E0,2.723801451E0,4.288400243E0
9.348734792E0,-2.830122542E0,-1.495358745E0,1.944380468E0,3.745171129E0
9.358688792E0,-3.251880453E0,-1.066144465E0,1.483508924E0,3.729904721E0
9.368643792E0,-3.244940685E0,-1.057884103E0,1.668639811E0,3.799094319E0
9.378598792E0,-2.685482892E0,-9.803394985E-1,2.322708185E0,3.683457236E0
9.388553792E0,-1.902308874E0,-7.948091000E-1,2.598678052E0,3.317171714E0
9.398508792E0,-1.051842102E0,-6.526381445E-1,2.181861624E0,2.508551076E0
9.408463792E0,1.663354513E-1,-5.960429442E-1,1.713428314E0,1.821749505E0
9.418418792E0,1.679881814E0,-8.539577794E-1,1.281395676E0,2.278864120E0
9.428372792E0,3.094978023E0,-8.518305624E-1,6.183266830E-1,3.269072063E0
9.438327792E0,4.898126890E0,-1.764292073E-1,5.097199148E-1,4.927736670E0
9.448282792E0,5.726249624E0,2.235039711E-1,5.143812786E-1,5.753649006E0
9.458237792E0,5.594742236E0,-8.474603534E-2,7.284098732E-1,5.642597232E0
9.468192792E0,5.088573335E0,-7.303090489E-1,1.195611686E0,5.277917885E0
9.478147792E0,4.033859300E0,-2.619870701E0,1.863038097E0,5.158163849E0
9.488102792E0,1.899905230E0,-4.783698342E0,1.806042362E0,5.454832603E0
9.498056792E0,-2.551306835E-1,-5.378626807E0,-5.904518366E-3,5.384677600E0
9.508011792E0,-1.257691063E0,-5.149636393E0,-1.685365187E0,5.562463268E0
9.517966792E0,-2.988304929E0,-4.345053672E0,-3.993266467E0,6.614804218E0
9.527921792E0,-4.569450805E0,-2.043533458E0,-5.298076149E0,7.288725577E0
9.537876792E0,-4.262812584E0,-5.369211620E-1,-3.987464860E0,5.861717451E0
9.547831792E0,-4.066472438E0,1.234015102E0,-3.853062808E0,5.736295352E0
9.557786792E0,-3.129368714E0,2.262549691E0,-3.228700921E0,5.033546393E0
9.567740792E0,-1.738759768E0,1.363549055E0,-8.693610996E-1,2.374518957E0
9.577695792E0,-9.912414859E-1,9.458894581E-1,-1.001712387E0,1.697260810E0
9.587650792E0,-1.650423396E-1,8.241434115E-1,-5.795849325E-1,1.020965245E0
9.597605792E0,1.125756828E0,4.997217607E-1,1.255311539E0,1.758652136E0
9.607560792E0,2.000276634E0,1.352531147E-1,1.154814566E0,2.313654404E0
9.617515792E0,2.281973849E0,-1.341573465E-1,-3.315546691E-1,2.309833618E0
9.627470792E0,2.583950670E0,-1.046949810E-1,-1.206379407E0,2.853614091E0
9.637425792E0,2.711349220E0,1.121279615E-1,-1.257169784E0,2.990729533E0
9.647379792E0,2.664246975E0,3.717104226E-1,-1.479056123E0,3.069851396E0
9.657334792E0,2.365292287E0,5.701614136E-1,-1.795844234E0,3.024028464E0
9.667289792E0,2.364794104E0,5.894467002E-1,-1.680233670E0,2.960216842E0
9.677244792E0,2.738382068E0,4.585789973E-1,-1.347290288E0,3.086133854E0
9.687199792E0,3.136675102E0,4.233436757E-1,-1.100482239E0,3.350971758E0
9.697154792E0,3.413429081E0,4.792617685E-1,-1.040145405E0,3.600429474E0
9.707109792E0,3.727407020E0,4.897446567E-1,-1.130581658E0,3.925764615E0
9.717063792E0,3.907832215E0,6.258959037E-1,-1.065948875E0,4.098676043E0
9.727018792E0,3.836879761E0,7.357551455E-1,-8.927353442E-1,4.007487783E0
9.736973792E0,3.430802621E0,7.626137459E-1,-7.104682767E-1,3.585631258E0
9.746928792E0,2.836761471E0,6.468301052E-1,-6.391477409E-1,2.978945227E0
9.756883792E0,2.246362844E0,5.344536370E-1,-7.279052585E-1,2.421080912E0
9.766838792E0,1.584146376E0,4.021755856E-1,-7.695418194E-1,1.806504789E0
9.776793792E0,1.050384757E0,4.980079418E-1,-6.315899223E-1,1.322961026E0
9.786747792E0,6.686124453E-1,1.000520579E0,-3.663318613E-1,1.257888335E0
9.796702792E0,1.832435524E-1,1.794082468E0,-1.211531389E-1,1.807481171E0
9.806657792E0,-7.222039309E-1,2.729455124E0,1.664566348E-1,2.828287751E0
9.816612792E0,-2.359380752E0,3.409799715E0,3.140466437E-1,4.158369503E0
9.826567792E0,-4.154079224E0,3.356132800E0,3.838233684E-1,5.354187328E0
9.836522792E0,-4.919470105E0,3.014664177E0,8.559721452E-1,5.832844462E0
9.846477792E0,-4.376312302E0,2.475204154E0,1.935779799E0,5.387577229E0
9.856431792E0,-3.233529844E0,1.278113049E0,3.182589778E0,4.713614952E0
9.866386792E0,-2.084299076E0,-3.035470909E-1,4.133575670E0,4.639277022E0
9.876341792E0,-1.314214343E-1,-1.336533165E0,4.151054167E0,4.362893901E0
9.886296792E0,1.385576686E0,-1.750970362E0,3.069515737E0,3.795740616E0
9.896251792E0,1.985293436E0,-1.493157268E0,2.130549383E0,3.272636449E0
9.906206792E0,1.298038313E0,-2.380600297E-1,2.377984838E0,2.719630109E0
9.916161792E0,-1.277046517E0,1.819631292E0,2.930768911E0,3.678493204E0
9.926115792E0,-3.260619409E0,3.516154720E0,3.297858864E0,5.819867356E0
9.936070792E0,-3.436188199E0,3.678353559E0,3.926748542E0,6.384123147E0
9.946025792E0,-2.624119288E0,2.869611713E0,3.898728100E0,5.506428445E0
9.955980792E0,-9.903815067E-1,1.700497196E0,2.196748635E0,2.949279710E0
9.965935792E0,4.256486481E-1,-1.539209354E-1,-3.981766748E-1,6.028375323E-1
9.975890792E0,1.442429456E0,-3.504682483E0,-4.524029342E0,5.901715304E0
9.985845792E0,1.598699803E0,-6.583115809E0,-6.975335340E0,9.723608277E0
9.995799792E0,-7.103449005E-1,-8.262936081E0,-7.507102182E0,1.118647781E1
1.000575479E1,-3.596448101E0,-9.820807993E0,-7.668411074E0,1.296870221E1
1.001570979E1,-4.934364717E0,-1.246218358E1,-3.773557924E0,1.392457232E1
1.002566479E1,-2.996248371E0,-1.165296753E1,-9.633293635E-1,1.207050786E1
1.003561979E1,7.964445662E-1,-2.107520708E0,5.131531075E-2,2.253575103E0
1.004557479E1,2.813791561E0,3.292243198E0,2.632245163E0,5.068037374E0
1.005552979E1,4.792617685E0,6.479127756E0,5.481326133E0,9.746446374E0
1.006548379E1,4.942360200E0,8.140363238E0,5.326750894E0,1.091176948E1
1.007543817E1,4.101713314E0,6.545412378E0,5.015191948E0,9.209702796E0
1.008539317E1,4.883442485E0,1.608386593E0,5.139125438E0,7.269492982E0
1.009534817E1,5.183684145E0,-4.072882740E0,3.356943224E0,7.397839073E0
1.010530317E1,4.416991966E0,-7.811624588E0,-2.216188288E-1,8.976659270E0
1.011525817E1,3.329035341E0,-8.534559129E0,-2.829150150E0,9.587766497E0
1.012521317E1,3.437390386E0,-6.282863039E0,-3.962212490E0,8.184689881E0
1.013516717E1,2.483081815E0,-3.728548982E0,-3.552419152E0,5.717294346E0
1.014512217E1,1.685939384E0,-2.139999653E0,-1.874065507E0,3.306676828E0
1.015507717E1,1.508772550E0,-4.161855143E-1,-6.327202622E-1,1.688176507E0
1.016503217E1,1.407792451E0,1.051636353E0,4.264877236E-1,1.808234051E0
1.017498717E1,9.616873191E-1,2.036261276E0,6.155492556E-1,2.334545645E0
1.018494217E1,6.554174723E-1,2.634731399E0,-3.456090367E-1,2.736937562E0
1.019489717E1,1.806326537E0,2.751882704E0,-1.178532627E0,3.496371423E0
1.020485117E1,1.659564786E0,2.179937890E0,-1.533396198E0,3.139679663E0
1.021480617E1,9.543872166E-1,1.783670915E0,-1.367503527E0,2.441803184E0
1.022476117E1,2.399562818E-1,1.499116750E0,-1.178147954E0,1.921708263E0
1.023471617E1,-1.259557495E-1,1.477488484E0,-1.047354510E0,1.815430677E0
1.024467117E1,-1.019704708E-1,1.529626352E0,-7.696233150E-1,1.715364335E0
1.025462617E1,-7.745426506E-2,1.900842100E0,-7.679089844E-2,1.903968670E0
1.026458117E1,1.291246480E-1,2.246108490E0,7.294167638E-1,2.365105778E0
1.027453517E1,3.344003628E-1,2.283438284E0,1.208451076E0,2.605046641E0
1.028449017E1,4.027266857E-1,1.967159466E0,1.126957262E0,2.302593715E0
1.029444517E1,5.656097947E-1,1.336482294E0,7.794876409E-1,1.647331280E0
1.030440017E1,7.520487043E-1,5.866610867E-1,3.770980471E-1,1.025646831E0
1.031435517E1,1.046736533E0,5.502756178E-2,-2.658435683E-2,1.048519017E0
1.032431017E1,6.504365216E-1,-2.613413036E-1,1.454091436E-1,7.158985715E-1
1.033426517E1,-2.873687223E-2,-6.532257897E-1,6.666890037E-1,9.338115269E-1
1.034421917E1,1.995667858E-1,-5.083241844E-1,1.118386413E0,1.244591719E0
1.035417417E1,-1.696104768E-1,-2.565196896E-1,1.854643250E0,1.879965864E0
1.036412917E1,-2.726789086E-1,5.378268957E-3,2.431202102E0,2.446451792E0
1.037408417E1,-4.414304294E-1,2.149606043E-1,2.763992872E0,2.807262988E0
1.038403917E1,-8.161119685E-1,5.310499728E-1,2.889840156E0,3.049463714E0
1.039399417E1,-1.278019055E0,9.495778817E-1,2.805153762E0,3.225510578E0
1.040394817E1,-1.748814201E0,1.862958575E0,2.536033323E0,3.600059830E0
1.041390317E1,-1.893484841E0,2.939607562E0,2.313402926E0,4.192661513E0
1.042385817E1,-1.769303576E0,3.398894073E0,2.296456525E0,4.467284257E0
1.043381317E1,-1.255947716E0,3.009052019E0,2.325204946E0,4.004794222E0
1.044376817E1,-4.936215068E-1,1.985412719E0,3.190519187E0,3.790110624E0
1.045372317E1,3.856637795E-1,3.787668425E-1,4.230900235E0,4.265292214E0
1.046367817E1,1.337809758E0,-9.272017568E-1,5.232433552E0,5.479762670E0
1.047363217E1,2.000023303E0,-2.103915900E0,5.746691490E0,6.438246533E0
1.048358717E1,1.747566259E0,-3.078543254E0,5.335885999E0,6.403365973E0
1.049354217E1,5.212389296E-1,-3.498900172E0,4.257604469E0,5.535448333E0
1.050349717E1,-1.061696926E0,-3.448641014E0,2.960074571E0,4.667158308E0
1.051345217E1,-2.087855499E0,-3.293929535E0,1.784924558E0,4.288947196E0
1.052340717E1,-2.320923615E0,-3.095464511E0,1.208348238E0,4.053232343E0
1.053336217E1,-1.795450424E0,-3.065835500E0,1.128710257E0,3.727864855E0
1.054331617E1,-3.996780206E-1,-2.876910208E0,1.740140734E0,3.385918581E0
1.055327117E1,8.443258803E-1,-2.317671393E0,2.106455930E0,3.243708289E0
1.056322617E1,1.698705463E0,-1.829346440E0,1.183137310E0,2.762593445E0
1.057318117E1,2.263122134E0,-1.493805140E0,2.358620614E-1,2.721912287E0
1.058313617E1,2.790704123E0,-1.115289143E0,-1.291538841E-1,3.008085786E0
1.059309117E1,3.270249774E0,-3.321136630E-1,-2.957187655E-1,3.300345839E0
1.060304517E1,2.697282866E0,7.822943044E-1,-7.126294076E-1,2.897440234E0
1.061300017E1,1.136875016E0,8.268816626E-1,-9.808252560E-1,1.714128429E0
1.062295517E1,9.543587114E-1,-6.832284379E-1,1.278078550E-1,1.180650878E0
1.063291017E1,1.470661568E0,-3.727954320E0,2.155250360E0,4.550339874E0
1.064286517E1,4.001373924E-1,-6.379546750E0,2.703477114E0,6.940282067E0
1.065282017E1,-1.481602439E0,-6.564418167E0,-5.948588830E-1,6.755781876E0
1.066277517E1,-2.198844861E0,-5.626293227E0,-3.325299847E0,6.895484992E0
1.067272917E1,-3.515240508E0,-4.237519283E0,-6.687557021E0,8.662384453E0
1.068268417E1,-3.186178215E0,-2.582390633E0,-8.237322938E0,9.201845586E0
1.069263917E1,-3.125714789E0,-1.406717294E-1,-5.505690896E0,6.332654555E0
1.070259417E1,-4.892140803E0,2.244136809E0,-3.005798336E0,6.164739678E0
1.071254917E1,-3.085172827E0,2.413630049E0,-2.281273353E0,4.533002261E0
1.072250417E1,-3.243183012E-1,2.141014729E0,-3.959617496E-2,2.165801073E0
1.073245917E1,9.185237579E-1,1.120207236E0,-4.214681813E-1,1.508703275E0
1.074241317E1,1.796480703E0,2.294055659E-1,-1.621898046E0,2.431156742E0
1.075236817E1,2.865178354E0,5.681154728E-3,-4.997296545E-1,2.908437554E0
1.076232317E1,2.355424233E0,2.904750556E-1,-3.285170406E-1,2.395897018E0
1.077227817E1,2.180325560E0,1.033799422E0,-8.167978469E-1,2.547492790E0
1.078223317E1,1.898541806E0,1.344943215E0,-1.332483676E0,2.681202340E0
1.079218817E1,9.877309638E-1,1.067458334E0,-1.957299891E0,2.438463167E0
1.080214217E1,6.005344829E-1,1.005607072E0,-2.242229740E0,2.529719639E0
1.081209717E1,7.549331358E-1,1.102750373E0,-2.417083122E0,2.761932882E0
1.082205217E1,1.510529346E0,8.365289837E-1,-2.186161374E0,2.785817869E0
1.083200717E1,2.132669583E0,5.961856163E-1,-1.788872891E0,2.846714432E0
1.084196217E1,2.680518606E0,4.800505579E-1,-1.665931089E0,3.192327510E0
1.085191717E1,3.181215390E0,4.573294473E-1,-1.730588430E0,3.650235321E0
1.086187217E1,3.609072532E0,5.614695275E-1,-1.696051851E0,4.027063999E0
1.087182617E1,3.769329510E0,7.653648609E-1,-1.455608496E0,4.112471814E0
1.088178117E1,3.687322895E0,1.003436000E0,-1.212194755E0,4.009070973E0
1.089173617E1,3.451062931E0,1.259561588E0,-1.009208079E0,3.809833552E0
1.090169117E1,3.156107739E0,1.426275061E0,-6.622860503E-1,3.526173481E0
1.091164617E1,2.770415454E0,1.467872738E0,-3.755225149E-1,3.157668336E0
1.092160117E1,2.221073344E0,1.584097844E0,-1.499521378E-1,2.732218590E0
1.093155617E1,1.533522060E0,1.823262413E0,3.837001383E-2,2.382739598E0
1.094151017E1,7.038711557E-1,2.256874968E0,1.784289551E-1,2.370813388E0
1.095146517E1,-2.909279224E-1,2.692355710E0,3.918397549E-1,2.736230384E0
1.096142017E1,-1.636991172E0,3.178657526E0,4.338579927E-1,3.601643586E0
1.097137517E1,-3.399597200E0,3.179432867E0,7.955370784E-2,4.655360703E0
1.098133017E1,-5.329158193E0,2.821706060E0,-3.007709791E-1,6.037583566E0
1.099128517E1,-6.423899635E0,2.792844204E0,-7.914928517E-1,7.049320975E0
1.100123917E1,-5.824927236E0,1.335744960E0,-3.489533517E-1,5.986297716E0
1.101119417E1,-4.158661979E0,-3.665525937E-1,2.576272107E0,4.905711796E0
1.102114917E1,-1.697167499E0,-1.559186951E0,4.430886120E0,4.994416210E0
1.103110417E1,7.938662365E-1,-2.487407293E0,4.175023658E0,4.924250317E0
1.104105917E1,1.641084808E0,-2.299994091E0,2.794162751E0,3.973723398E0
1.105101417E1,7.436564881E-1,-1.157095565E0,1.251128002E0,1.859359136E0
1.106096917E1,-1.413086666E0,5.931971043E-1,2.322677779E-1,1.550046790E0
1.107092296E1,-3.603210990E0,1.774955640E0,-5.815687466E-1,4.058548900E0
1.108087796E1,-3.774239125E0,1.417819403E0,2.647870678E-1,4.040446141E0
1.109083296E1,-2.849547578E0,-6.150510728E-1,1.238988744E0,3.167538844E0
1.110078796E1,-1.662428606E0,-2.325343525E0,1.052336850E0,3.046030897E0
1.111074296E1,-4.692858338E-1,-3.300250960E0,9.689877141E-1,3.471429501E0
1.112069796E1,-4.317651281E-1,-4.982010169E0,-1.089343585E-1,5.001870964E0
1.113065196E1,-1.131994638E0,-7.902915997E0,-2.436907815E0,8.347215872E0
1.114060696E1,-5.048909917E-1,-1.052532965E1,-3.803058296E0,1.120271090E1
1.115056196E1,1.068895872E0,-9.587535664E0,-3.964399348E0,1.042975746E1
1.116051696E1,2.054325079E0,-5.759461809E0,-3.319397083E0,6.957733026E0
1.117047196E1,2.312759440E0,-1.915729111E0,-1.111504386E0,3.202236133E0
1.118042696E1,2.987912873E0,8.491595542E-1,-1.241102220E-1,3.108713340E0
1.119038196E1,3.066721938E0,1.829403158E0,8.928859100E-1,3.680861938E0
1.120033596E1,2.563827770E0,2.174998747E0,1.967216038E0,3.895352529E0
1.121029096E1,2.772842633E0,1.813854827E0,2.220824399E0,3.988832738E0
1.122024596E1,2.392690293E0,8.775314140E-1,-4.274156767E-1,2.584127006E0
1.123020096E1,1.149386888E0,-8.203093922E-1,-3.211398425E0,3.508144462E0
1.124015596E1,2.265232394E0,-2.303697132E0,-2.907893434E0,4.346739295E0
1.125011096E1,2.862586284E0,-2.830934721E0,-2.173493235E0,4.575222887E0
1.126006496E1,3.187005596E0,-2.369780025E0,-1.535441408E0,4.257985715E0
1.127001996E1,3.186741301E0,-1.084732763E0,-2.715471800E-1,3.377233063E0
1.127997496E1,3.328423430E0,3.433192670E-1,1.244745766E0,3.570106815E0
1.128992996E1,2.801783719E0,1.106152284E0,2.218149882E0,3.740822608E0
1.129988496E1,2.381863881E0,1.454666802E0,2.517087759E0,3.758332321E0
1.130983996E1,2.273376688E0,1.457907913E0,2.183263932E0,3.472805558E0
1.131979496E1,2.037730389E0,1.015844961E0,1.138112580E0,2.545503166E0
1.132974896E1,1.946855887E0,3.518369061E-1,2.754845488E-1,1.997480611E0
1.133970396E1,1.231325822E0,4.300767446E-1,-6.055041777E-1,1.437972390E0
1.134965896E1,2.616602692E-1,8.494016290E-1,-1.427441435E0,1.681528553E0
1.135961396E1,-6.104520915E-1,1.146067716E0,-1.879427258E0,2.284375141E0
1.136956896E1,-1.503333762E0,1.500018976E0,-1.978955054E0,2.902814571E0
1.137952396E1,-1.826785652E0,1.978282040E0,-1.931943879E0,3.314084006E0
1.138947796E1,-1.547091108E0,2.166468828E0,-1.558416873E0,3.084759509E0
1.139943296E1,-8.690541208E-1,1.914166151E0,-9.311603218E-1,2.299205659E0
1.140938796E1,-2.753117636E-1,1.426097306E0,-1.363588232E-1,1.458815897E0
1.141934296E1,-5.369980529E-2,8.973376876E-1,3.564363259E-1,9.670291873E-1
1.142929796E1,9.120704783E-1,4.883413249E-1,4.422536442E-1,1.125139144E0
1.143925296E1,1.170243468E0,-2.082485855E-2,1.708117142E-1,1.182827160E0
1.144920696E1,8.951574071E-1,-2.047835255E-1,1.120268047E-2,9.183510090E-1
1.145916196E1,5.612087417E-1,-9.700881600E-2,-1.226278067E-2,5.696633549E-1
1.146911696E1,2.970581433E-1,1.974078476E-2,-1.051978415E-1,3.157527909E-1
1.147907196E1,1.671314035E-1,-1.903093278E-2,9.082830906E-2,1.911671106E-1
1.148902696E1,2.874944374E-2,-2.295675337E-2,-6.912227511E-2,7.830346070E-2
1.149898196E1,5.295545474E-2,3.852087200E-2,-1.262238443E-1,1.421991443E-1
1.150893596E1,1.442527105E-1,1.536531329E-2,-2.933255732E-2,1.480045143E-1
1.151889096E1,2.493882792E-1,-4.343136370E-2,1.426913760E-1,2.905884133E-1
1.152884596E1,2.126430604E-1,-2.201663804E-1,6.307748204E-1,7.011185209E-1
1.153880096E1,1.773153529E-1,-3.510703361E-1,1.333629438E0,1.390416697E0
1.154875596E1,2.173857370E-1,-3.483379322E-1,1.880168685E0,1.924481789E0
1.155871096E1,5.272063056E-1,-2.480201769E-1,2.314601605E0,2.386805624E0
1.156866596E1,6.957161902E-1,2.500912607E-2,2.416575876E0,2.514852966E0
1.157861996E1,6.582773454E-1,5.020565540E-1,2.577828051E0,2.707505735E0
1.158857496E1,5.667568722E-1,1.310396696E0,2.863293797E0,3.199500620E0
1.159852996E1,2.997064204E-1,2.552587375E0,3.151677303E0,4.066767275E0
1.160848496E1,-9.539739646E-2,3.443480262E0,3.343733779E0,4.800751250E0
1.161843996E1,-2.401204424E-1,3.693485568E0,3.310689702E0,4.965899694E0
1.162839496E1,-1.245037396E-1,3.194173697E0,3.569470217E0,4.791593098E0
1.163834896E1,1.910453461E-1,2.156707487E0,3.947107962E0,4.501949219E0
1.164830396E1,7.685993944E-1,9.263264287E-1,4.557730354E0,4.713993176E0
1.165825896E1,1.274650474E0,-1.582736027E-1,4.938019227E0,5.102334588E0
1.166821396E1,1.575144880E0,-1.194110194E0,5.145469083E0,5.512062466E0
1.167816896E1,1.313213007E0,-2.187603589E0,4.989940163E0,5.604430452E0
1.168812396E1,5.936107948E-1,-2.729876708E0,4.198966252E0,5.043403434E0
1.169807896E1,-3.176748410E-1,-2.700114380E0,2.963173596E0,4.021434163E0
1.170803296E1,-1.263401308E0,-2.354145740E0,1.833354707E0,3.240273832E0
1.171798796E1,-2.142910104E0,-2.347133759E0,1.201364323E0,3.397701699E0
1.172794296E1,-2.703394083E0,-2.482831262E0,1.109891578E0,3.834664256E0
1.173789796E1,-2.446847643E0,-2.607802632E0,1.539084224E0,3.893132184E0
1.174785296E1,-1.484992216E0,-2.391205392E0,2.024789039E0,3.467396107E0
1.175780796E1,-8.385125054E-1,-2.018236064E0,1.687120521E0,2.760933843E0
1.176776196E1,-1.402138925E-1,-1.488991712E0,8.033068585E-1,1.697662558E0
1.177771696E1,7.120248055E-1,-8.558780050E-1,7.056304732E-2,1.115565160E0
1.178767196E1,1.831250440E0,-3.538682288E-1,-5.983069861E-1,1.958742491E0
1.179762696E1,2.678603058E0,-7.327145934E-3,-9.543871435E-1,2.843558132E0
1.180758196E1,3.059993547E0,6.699459028E-1,-1.394551578E0,3.428871844E0
1.181753696E1,3.343295238E0,9.859808922E-1,-1.275829126E0,3.711808364E0
1.182749096E1,2.751407618E0,-6.502688527E-3,-2.503404251E-1,2.762780572E0
1.183744596E1,2.267139609E0,-2.027581669E0,1.195179065E0,3.267944680E0
1.184740096E1,1.686935311E0,-4.323710166E0,2.667347753E0,5.353033194E0
1.185735596E1,2.705559307E-1,-5.501245843E0,2.609530485E0,6.094797428E0
1.186731096E1,-1.006009652E0,-5.256057472E0,1.392344838E-1,5.353277670E0
1.187726596E1,-2.513909213E0,-4.590688185E0,-3.086138787E0,6.076052185E0
1.188721996E1,-3.887214348E0,-3.404982778E0,-6.220125924E0,8.086674818E0
1.189717496E1,-3.504024087E0,-1.143423606E0,-5.346910340E0,6.494232250E0
1.190712996E1,-4.208664443E0,4.234039021E-1,-3.341698363E0,5.390647013E0
1.191708496E1,-3.694735411E0,9.124696970E-1,-3.656270964E0,5.277498277E0
1.192703996E1,-1.988310307E0,8.374633688E-1,-3.894047989E0,4.451778578E0
1.193699496E1,-1.122949726E0,1.180318952E0,-3.072556289E0,3.477753739E0
1.194694896E1,8.272975458E-1,1.175280991E0,-2.928066328E-1,1.466779588E0
1.195690396E1,1.533276769E0,3.375568360E-1,-5.173394215E-1,1.653034284E0
1.196685896E1,1.971567974E0,1.452044910E-1,-1.106603104E0,2.265554027E0
1.197681396E1,1.837579905E0,8.143925947E-1,-7.502392834E-1,2.145412358E0
1.198676896E1,1.610719047E0,9.751384002E-1,-5.538231236E-1,1.962659115E0
1.199672396E1,1.742972833E0,7.891098189E-1,-7.209087726E-1,2.044592395E0
1.200667796E1,1.847124023E0,8.725069016E-1,-1.630052866E0,2.613466624E0
1.201663296E1,2.214003476E0,8.885405517E-1,-1.857525050E0,3.023526916E0
1.202658796E1,2.075640519E0,8.361348814E-1,-1.602781452E0,2.752510397E0
1.203654296E1,2.131886348E0,8.120145321E-1,-1.357157756E0,2.654464951E0
1.204649796E1,2.500179658E0,7.254272085E-1,-1.287496076E0,2.904270838E0
1.205645296E1,2.896142870E0,5.716653174E-1,-1.358936187E0,3.249792657E0
1.206640796E1,3.157682394E0,4.386733210E-1,-1.394905042E0,3.479820751E0
1.207636258E1,3.234542874E0,5.426929486E-1,-1.341577558E0,3.543531231E0
1.208631758E1,3.137027689E0,8.169215155E-1,-1.302773388E0,3.493640220E0
1.209627258E1,2.979841669E0,1.111741637E0,-1.087789395E0,3.361355620E0
1.210622758E1,2.747507525E0,1.315956813E0,-8.116645762E-1,3.152671774E0
1.211618258E1,2.442883084E0,1.472063438E0,-6.924281546E-1,2.934979604E0
1.212613758E1,2.117040268E0,1.604447908E0,-5.160354924E-1,2.705994312E0
1.213609158E1,1.482088489E0,1.781510369E0,-1.389944556E-1,2.321569500E0
1.214604658E1,7.894103658E-1,2.155540382E0,1.447016305E-1,2.300100352E0
1.215600158E1,1.278420612E-1,2.707307625E0,2.665891796E-1,2.723403745E0
1.216595658E1,-8.831476647E-1,2.961483750E0,4.024685311E-1,3.116459003E0
1.217591158E1,-2.032905851E0,2.883498266E0,3.280627120E-1,3.543288528E0
1.218586658E1,-3.230408016E0,2.768389394E0,2.228619468E-1,4.260185821E0
1.219582058E1,-4.351605770E0,2.504636698E0,3.011004697E-1,5.029944260E0
1.220577558E1,-4.540586610E0,1.872111806E0,5.281833753E-1,4.939707183E0
1.221573058E1,-3.938918060E0,7.764886039E-1,1.156928042E0,4.178096759E0
1.222568558E1,-3.191744471E0,-1.006142092E-1,1.945996054E0,3.739552999E0
1.223564058E1,-2.473996704E0,-7.321041441E-1,2.890245953E0,3.874294495E0
1.224559558E1,-1.518026938E0,-1.331750727E0,3.356103564E0,3.916809533E0
1.225554958E1,-1.117999620E0,-1.341617319E0,2.748209483E0,3.256150418E0
1.226550458E1,-1.478940640E0,-8.399390799E-1,1.308252376E0,2.145760321E0
1.227545958E1,-2.502568538E0,-2.372016585E-1,1.005682501E0,2.707491682E0
1.228541458E1,-3.506562655E0,-5.057847387E-1,2.374909495E0,4.265207494E0
1.229536958E1,-3.857596739E0,-1.215743723E0,2.784089168E0,4.910217703E0
1.230532458E1,-3.320027705E0,-2.677579211E0,1.201368343E0,4.431173692E0
1.231527858E1,-2.864249524E0,-4.520862490E0,-6.539135684E-1,5.391634812E0
1.232523358E1,-1.911120628E0,-5.802333595E0,-1.366938686E0,6.260030237E0
1.233518858E1,-5.981543738E-1,-6.039462163E0,-1.713088152E0,6.306152780E0
1.234514358E1,8.432290158E-1,-6.525849348E0,-2.873799489E0,7.180283309E0
1.235509858E1,2.770347626E0,-6.326691429E0,-2.887716155E0,7.486037336E0
1.236505358E1,3.170163568E0,-3.601559737E0,-2.334132767E0,5.335667283E0
1.237500758E1,1.542296099E0,-1.642484631E0,-1.717319782E0,2.832952568E0
1.238496258E1,1.327539855E0,3.770150167E-1,-8.825677671E-1,1.638117289E0
1.239491758E1,2.119352842E0,1.655849612E0,3.375887033E-1,2.710619954E0
1.240487258E1,2.327078101E0,1.976869937E0,1.600419031E0,3.447411828E0
1.241482758E1,3.076421299E0,9.234449208E-1,8.647235267E-1,3.326389230E0
1.242478258E1,2.997896116E0,-5.354903483E-1,-2.278002859E0,3.803081391E0
1.243473658E1,1.889326009E0,-1.300565772E0,-4.294360067E0,4.868526726E0
1.244469158E1,1.733825156E0,-1.962900939E0,-3.322217195E0,4.230396773E0
1.245464658E1,1.706754594E0,-2.630925447E0,-9.212948996E-1,3.268572203E0
1.246460158E1,2.057848027E0,-2.332216342E0,-1.897493108E-1,3.116083498E0
1.247455658E1,2.138013938E0,-1.394683140E0,-3.585588652E-1,2.577752727E0
1.248451158E1,2.198866496E0,8.699721336E-2,3.436158670E-1,2.227252623E0
1.249446558E1,2.362211974E0,9.259294027E-1,1.007675378E0,2.729981746E0
1.250442058E1,2.539714730E0,1.143937576E0,1.277392672E0,3.064388377E0
1.251437558E1,3.311814414E0,7.149203467E-1,1.028085669E0,3.540647675E0
1.252433058E1,4.309061429E0,-2.975542796E-1,8.450413603E-1,4.401209362E0
1.253428558E1,3.866446207E0,-9.699484116E-1,-7.034288138E-1,4.047841189E0
1.254424058E1,2.810734637E0,-1.079941555E0,-1.325366153E0,3.289847778E0
1.255419458E1,1.504112319E0,-7.992676020E-1,-1.083985489E0,2.018961889E0
1.256414958E1,8.622245729E-2,3.266073400E-1,-7.504410124E-1,8.229631703E-1
1.257410458E1,-1.113601782E0,1.065953261E0,-6.656835750E-1,1.679136655E0
1.258405958E1,-1.942763713E0,1.324317747E0,-1.087006307E0,2.590314855E0
1.259401458E1,-1.822958357E0,1.618463100E0,-1.681973948E0,2.961694842E0
1.260396958E1,-1.036570125E0,1.747065591E0,-1.867052357E0,2.759094110E0
1.261392358E1,-1.161578625E-1,1.508683965E0,-1.755903073E0,2.317933467E0
1.262387858E1,6.956520170E-1,1.063081693E0,-8.961704372E-1,1.554733375E0
1.263383358E1,1.034494363E0,5.723225445E-1,-4.784987068E-1,1.275418635E0
1.264378858E1,1.220775398E0,2.838425589E-1,-4.493603501E-1,1.331459310E0
1.265374358E1,1.043467062E0,3.118401968E-1,7.121258162E-2,1.091393169E0
1.266369858E1,8.361382435E-1,4.870672166E-1,3.960319161E-1,1.045563444E0
1.267365258E1,6.221487156E-1,6.039600742E-1,5.428437337E-1,1.022993702E0
1.268360758E1,4.797292534E-1,6.913923204E-1,7.647380394E-1,1.137096199E0
1.269356258E1,3.934278587E-1,6.550811112E-1,8.346491039E-1,1.131616485E0
1.270351758E1,4.432113451E-1,6.260163563E-1,7.030925989E-1,1.040515246E0
1.271347258E1,7.698014358E-1,6.663621444E-1,4.789700655E-1,1.125186687E0
1.272342758E1,-1.436513244E-1,1.707965845E-1,6.302374613E-1,6.685853976E-1
1.273338158E1,8.651803404E-2,-3.414890885E-2,7.446850133E-1,7.504713767E-1
1.274333658E1,-8.472235411E-2,-2.009804964E-2,1.157908913E0,1.161178220E0
1.275329158E1,-3.339210373E-1,-1.459523499E-2,1.599414625E0,1.633965551E0
1.276324658E1,-9.502953351E-2,1.232850337E-1,1.802684891E0,1.809392890E0
1.277320158E1,-6.317711860E-2,4.119404358E-1,1.822999288E0,1.870030127E0
1.278315658E1,-2.280167060E-1,1.050302019E0,1.884487438E0,2.169428232E0
1.279311058E1,-4.354319170E-1,2.301756442E0,2.097443032E0,3.144352230E0
1.280306558E1,-1.616148479E-1,3.807929612E0,2.567532274E0,4.595505333E0
1.281302058E1,5.252258536E-1,4.566653790E0,3.169988444E0,5.583817311E0
1.282297558E1,9.552249764E-1,3.997524995E0,3.182061775E0,5.197901305E0
1.283293058E1,1.181573910E0,2.596166673E0,3.255716811E0,4.328497460E0
1.284288458E1,1.408618517E0,1.270706965E0,3.739508418E0,4.193187991E0
1.285283958E1,1.647992123E0,-1.038114667E-2,4.378607919E0,4.678481924E0
1.286279458E1,1.865161660E0,-1.352237617E0,4.655615083E0,5.194432249E0
1.287274958E1,1.704685703E0,-2.619167866E0,4.534509891E0,5.507065789E0
1.288270458E1,1.160737796E0,-3.425604739E0,4.410511497E0,5.703918979E0
1.289265958E1,-1.791250661E-2,-3.258708832E0,4.037530475E0,5.188560151E0
1.290261358E1,-1.449929095E0,-2.368628123E0,3.383597757E0,4.377376765E0
1.291256858E1,-2.339682213E0,-1.223474327E0,2.946851678E0,3.956632040E0
1.292252358E1,-2.831877877E0,-2.643146127E-1,2.829059519E0,4.011604702E0
1.293247858E1,-2.899944729E0,4.368413883E-1,2.688074963E0,3.978222824E0
1.294243358E1,-2.626890868E0,8.762532127E-1,2.508142104E0,3.736194874E0
1.295238858E1,-2.027264458E0,1.003693863E0,2.436139491E0,3.324451559E0
1.296234258E1,-1.444723758E0,7.741836315E-1,2.506828820E0,2.995125667E0
1.297229758E1,-9.296274742E-1,5.233100134E-1,2.029989552E0,2.293233131E0
1.298225258E1,-1.693308337E-1,3.653188312E-1,1.615619599E0,1.665039779E0
1.299220758E1,7.963165122E-1,2.801278228E-1,1.408207750E0,1.641840629E0
1.300216258E1,1.374862979E0,-1.563662410E-1,1.005838037E0,1.710674945E0
1.301211758E1,2.146142883E0,-1.249567527E0,4.226256011E-1,2.519119028E0
1.302207158E1,4.371315857E0,-3.008213528E0,-1.573936699E-1,5.308721477E0
1.303202658E1,5.007194712E0,-4.238867067E0,-1.042654445E0,6.642824789E0
1.304198158E1,5.023206142E0,-3.517337027E0,-1.142669461E0,6.237784319E0
1.305193658E1,3.656822357E0,-2.876384543E0,1.784640384E-1,4.655941065E0
1.306189158E1,-7.192075253E-4,-4.469420441E0,2.008198149E0,4.899855039E0
1.307184679E1,-3.891652384E0,-6.307724231E0,8.834974743E-1,7.464108188E0
1.308180079E1,-4.139190751E0,-7.168606868E0,-1.814636161E0,8.474357138E0
1.309175579E1,-5.011653798E0,-6.669304937E0,-4.267879781E0,9.370757705E0
1.310171079E1,-6.059863683E0,-4.283646798E0,-6.993194491E0,1.019687927E1
1.311166579E1,-4.916335997E0,-2.252765545E0,-7.562280017E0,9.296956023E0
1.312162079E1,-4.770531582E0,-2.830818361E-1,-6.177078137E0,7.809891242E0
1.313157579E1,-4.900910165E0,1.701992329E0,-4.701143843E0,7.001175028E0
1.314152979E1,-3.618042453E0,2.925092434E0,-2.773029452E0,5.416280022E0
1.315148479E1,-2.552869211E0,3.360994760E0,-1.607358652E0,4.516306989E0
1.316143979E1,-6.660922953E-1,2.587320421E0,4.331655362E-1,2.706573163E0
1.317139479E1,1.964123592E-1,1.228343303E0,5.129779834E-1,1.345567351E0
1.318134979E1,1.452922870E0,2.627124757E-1,-4.225809065E-1,1.535766041E0
1.319130379E1,2.420445856E0,8.638968766E-2,-9.804581970E-2,2.423970772E0
1.320125879E1,2.734485191E0,4.428271830E-2,-6.649114501E-1,2.814511939E0
1.321121379E1,2.487281578E0,-9.011962652E-2,-1.542615357E0,2.928199674E0
1.322116879E1,1.985592813E0,2.152015096E-1,-2.144683272E0,2.930623969E0
1.323112379E1,1.996442030E0,6.449683517E-1,-2.634102239E0,3.367530187E0
1.324107879E1,2.286914162E0,9.005162340E-1,-2.749988206E0,3.688270734E0
1.325103279E1,2.651992088E0,9.379822683E-1,-2.247817339E0,3.600771523E0
1.326098779E1,2.834131978E0,6.554237580E-1,-1.750497030E0,3.395014613E0
1.327094279E1,2.862721354E0,3.596786070E-1,-1.473784566E0,3.239843082E0
1.328089779E1,2.973876339E0,2.351071858E-1,-1.434440990E0,3.310111301E0
1.329085279E1,3.147399188E0,3.837977868E-1,-1.517699786E0,3.515229015E0
1.330080779E1,3.170113867E0,7.182643694E-1,-1.469002420E0,3.567000665E0
1.331076179E1,3.042839862E0,1.120226532E0,-1.171461005E0,3.447622775E0
1.332071679E1,2.999430133E0,1.385789525E0,-8.873073739E-1,3.421155961E0
1.333067179E1,2.884388504E0,1.390272585E0,-6.536783642E-1,3.268004025E0
1.334062679E1,2.630125548E0,1.430821272E0,-4.162875482E-1,3.022929908E0
1.335058179E1,2.304501709E0,1.606432453E0,-3.512963310E-1,2.831035582E0
1.336053579E1,1.837665274E0,1.932209489E0,-1.072420281E-1,2.668697814E0
1.337049079E1,1.348416461E0,2.281159040E0,2.065169325E-1,2.657924521E0
1.338044579E1,6.190640169E-1,2.730342146E0,5.461433905E-1,2.852416711E0
1.339040079E1,-7.138523528E-1,2.965770929E0,7.379670011E-1,3.138467409E0
1.340035579E1,-2.699629354E0,2.816601441E0,6.093216786E-1,3.948735903E0
1.341031079E1,-4.634706317E0,2.443203512E0,5.611912000E-1,5.269220209E0
1.342026479E1,-5.661394647E0,1.681851595E0,1.243296680E0,6.035379091E0
1.343021979E1,-6.062786706E0,1.039436138E0,2.269486828E0,6.556552493E0
1.344017479E1,-5.405898221E0,4.223280144E-1,3.141291479E0,6.266562748E0
1.345012979E1,-3.178427145E0,-5.104788834E-1,3.274241375E0,4.591692977E0
1.346008479E1,-1.111110722E0,-1.534520472E0,3.319331594E0,3.821947455E0
1.347003979E1,-2.829790713E-1,-1.987651033E0,2.990953717E0,3.602310082E0
1.347999379E1,-1.203824905E0,-1.232974883E0,2.283049445E0,2.860373442E0
1.348994879E1,-2.724753962E0,-2.696624762E-1,3.720427199E0,4.619370146E0
1.349990379E1,-4.503055087E0,7.754378593E-1,5.498853747E0,7.149559533E0
1.350985879E1,-4.578071063E0,1.172255057E0,4.181072895E0,6.309856348E0
1.351981379E1,-3.062945513E0,-2.475371969E-1,1.500594342E-1,3.076593525E0
1.352976779E1,-1.640936873E0,-2.682728269E0,-3.032224827E0,4.368534330E0
1.353972279E1,8.390877253E-1,-5.152137247E0,-4.028482493E0,6.593728659E0
1.354967779E1,1.646756899E0,-7.072444729E0,-3.329429151E0,7.988515581E0
1.355963279E1,5.494318646E-1,-9.215617665E0,-2.700588589E0,9.618870155E0
1.356958779E1,-1.651841345E-1,-1.069879315E1,-2.734527583E0,1.104396223E1
1.357954279E1,1.001102084E0,-8.630713667E0,-3.023356063E0,9.199570950E0
1.358949679E1,1.641225141E0,-3.397926943E0,-2.732619052E0,4.659048654E0
1.359945179E1,1.713940237E0,1.617374348E0,-8.078858131E-1,2.491218659E0
1.360940679E1,3.090084195E0,4.726472812E0,1.491614042E0,5.840640207E0
1.361936179E1,4.325120514E0,4.908898339E0,1.503293855E0,6.712960805E0
1.362931679E1,3.804876488E0,4.036196725E0,2.128807497E-1,5.550971744E0
1.363927179E1,3.108533038E0,3.437209707E0,-2.051779933E0,5.068253063E0
1.364922579E1,2.839012357E0,1.133130167E0,-2.190350611E0,3.760533331E0
1.365918079E1,2.135603716E0,-3.296104115E0,-5.442034306E-1,3.965004784E0
1.366913579E1,2.509414166E0,-6.987115141E0,-4.658543953E-1,7.438679841E0
1.367909079E1,3.417617150E0,-7.585667710E0,-1.806766832E0,8.513922009E0
1.368904579E1,3.973086557E0,-5.202545509E0,-3.031287811E0,7.213917268E0
1.369899979E1,2.939062602E0,-2.066470916E0,-2.425825148E0,4.335091542E0
1.370895479E1,1.834125955E0,6.175688839E-1,-4.053248960E-1,1.977295530E0
1.371890979E1,1.404674570E0,1.984233336E0,9.335148494E-1,2.604177903E0
1.372886479E1,1.453931514E0,2.136204225E0,1.328634015E0,2.905607283E0
1.373881979E1,2.177919285E0,1.899163365E0,1.475484644E0,3.244566046E0
1.374877479E1,2.459657577E0,1.349702264E0,1.019106977E0,2.984994242E0
1.375872879E1,2.067841211E0,5.834369320E-1,-3.548575777E-1,2.177679918E0
1.376868379E1,1.996592596E0,-2.235203433E-1,-1.491044231E0,2.501910517E0
1.377863879E1,1.661038285E0,-7.446136773E-1,-2.280085637E0,2.917582599E0
1.378859379E1,1.015091548E0,-9.266842782E-1,-2.698612230E0,3.028475288E0
1.379854879E1,1.563472375E-1,-1.512984592E-1,-2.466683006E0,2.476259424E0
1.380850379E1,-1.036416636E0,7.933320934E-1,-1.927856237E0,2.328124765E0
1.381845779E1,-1.553410925E0,1.306887197E0,-1.471655448E0,2.507351074E0
1.382841279E1,-6.474909867E-1,1.890348102E0,-3.631375274E-1,2.030893742E0
1.383836779E1,-2.172699621E-1,1.904397792E0,-4.245908868E-1,1.963215375E0
1.384832279E1,2.909855175E-1,1.479345560E0,-7.442822863E-1,1.681395843E0
1.385827779E1,6.947224559E-1,9.866053748E-1,-2.714745283E-2,1.206965799E0
1.386823179E1,8.845938273E-1,5.120874524E-1,2.935862859E-1,1.063453199E0
1.387818679E1,8.510885507E-1,1.596523762E-1,1.488818049E-2,8.660613490E-1
1.388814179E1,7.886876500E-1,-1.083529991E-1,-2.422424700E-1,8.321358038E-1
1.389809679E1,7.066291411E-1,-4.130666095E-1,-3.613777348E-1,8.947304813E-1
1.390805179E1,6.288000695E-1,-5.464819443E-1,-1.375966787E-1,8.443724823E-1
1.391800579E1,2.530012737E-1,-4.173572963E-1,2.404475210E-1,5.440696349E-1
1.392796079E1,-3.477554034E-1,-2.360532653E-1,6.159673315E-1,7.457014940E-1
1.393791579E1,-9.389732252E-1,4.088957906E-3,1.130249244E0,1.469404910E0
1.394787079E1,-1.170829798E0,4.843079156E-1,1.452084087E0,1.927159767E0
1.395782579E1,-8.967823483E-1,1.425564625E0,1.634173983E0,2.346695056E0
1.396778079E1,-1.965512598E0,2.070458717E0,2.435071789E0,3.752281131E0
1.397773479E1,-1.245071018E0,3.401889017E0,2.735457290E0,4.539358689E0
1.398768979E1,-4.798092871E-1,4.777049473E0,2.970901276E0,5.645943058E0
1.399764479E1,8.686429153E-1,5.339900697E0,3.015468754E0,6.193717121E0
1.400759979E1,1.828059030E0,4.268939297E0,3.144562411E0,5.608379025E0
1.401755479E1,2.189045366E0,2.620306318E0,4.028083713E0,5.280471875E0
1.402750979E1,2.297334485E0,1.289513365E0,4.916964573E0,5.578273125E0
1.403746379E1,2.097626927E0,-9.891676247E-2,5.365213294E0,5.761539459E0
1.404741879E1,1.544735557E0,-1.636149173E0,5.104994656E0,5.578903342E0
1.405737379E1,9.589525764E-1,-2.985069664E0,4.285425521E0,5.309906105E0
1.406732879E1,2.301961094E-1,-3.430021725E0,3.399399272E0,4.834661798E0
1.407728258E1,-7.939606690E-1,-2.846808157E0,3.028823794E0,4.231839293E0
1.408723658E1,-2.084226571E0,-1.769473876E0,2.869639195E0,3.963567497E0
1.409719158E1,-3.392679944E0,-7.986893123E-1,2.726424512E0,4.425107054E0
1.410714658E1,-4.251587392E0,3.407815754E-2,2.674515270E0,5.022966116E0
1.411710158E1,-4.600881051E0,6.476264960E-1,2.546903297E0,5.298513275E0
1.412705658E1,-4.422896485E0,1.015228665E0,2.362670395E0,5.116142488E0
1.413701158E1,-3.465987949E0,1.467060560E0,2.271014121E0,4.395775732E0
1.414696558E1,-2.131258211E0,1.881511205E0,2.295676507E0,3.654104077E0
1.415692058E1,-6.499922794E-1,2.254515032E0,1.500330048E0,2.785016741E0
1.416687558E1,7.176221989E-1,2.356447788E0,9.026159692E-1,2.623460194E0
1.417683058E1,1.177188352E0,1.550134292E0,1.349987023E0,2.368787391E0
1.418678558E1,1.310032414E0,-2.534551638E-1,1.531588093E0,2.031301684E0
1.419673958E1,2.745495790E0,-3.051889890E0,1.088819967E0,4.247035196E0
1.420669458E1,4.777930064E0,-6.784092797E0,1.930341303E-1,8.299987527E0
1.421664958E1,7.016474011E0,-8.726927846E0,-7.450387698E-1,1.122253358E1
1.422660458E1,6.142634529E0,-6.806283565E0,-3.236071336E-1,9.173994577E0
1.423655958E1,1.584835031E0,-4.866669163E0,1.079936877E0,5.230911438E0
1.424651358E1,-3.614237670E0,-5.547394407E0,1.482901837E0,6.784931577E0
1.425646858E1,-6.080098557E0,-6.836337084E0,-1.515455771E0,9.273602827E0
1.426642358E1,-6.895943601E0,-6.855106646E0,-5.869554940E0,1.135773747E1
1.427637858E1,-8.224407608E0,-5.400422888E0,-9.482552415E0,1.366470813E1
1.428633358E1,-8.994602854E0,-3.756833133E0,-1.182366179E1,1.532369583E1
1.429628858E1,-6.999686070E0,-1.434892103E0,-9.059071330E0,1.153782015E1
1.430624258E1,-5.949220914E0,1.697785258E0,-5.013656470E0,7.963193798E0
1.431619758E1,-6.131305549E0,2.881390345E0,-2.564820920E0,7.243868055E0
1.432615258E1,-2.939739709E0,3.256740659E0,-3.276253402E-1,4.399519024E0
1.433610758E1,7.097202717E-1,2.569115115E0,-5.639733052E-1,2.724357030E0
1.434606258E1,2.045978471E0,8.745323771E-1,7.267656362E-1,2.340731312E0
1.435601758E1,4.331599814E0,-1.447624415E-1,7.501808113E-1,4.398463864E0
1.436597158E1,4.788690110E0,-6.227448392E-1,-1.299401884E0,5.000780875E0
1.437592658E1,4.236474093E0,-1.789435101E-1,-1.726122619E0,4.578125470E0
1.438588158E1,3.429817365E0,5.944115710E-1,-2.189561237E0,4.112316948E0
1.439583658E1,2.067243625E0,1.220778760E0,-2.627512719E0,3.559160024E0
1.440579158E1,5.163734615E-1,1.626148095E0,-2.913614350E0,3.376410484E0
1.441574558E1,7.378306147E-1,1.671002671E0,-2.980955563E0,3.496103547E0
1.442570058E1,8.830596641E-1,1.256103544E0,-2.550368649E0,2.976906235E0
1.443565558E1,1.536069691E0,9.337933230E-1,-2.297077500E0,2.916855345E0
1.444561058E1,2.279302256E0,6.682408547E-1,-2.089659511E0,3.163612095E0
1.445556558E1,2.790556481E0,5.597592169E-1,-1.944206806E0,3.446806632E0
1.446551958E1,3.167410699E0,8.240328991E-1,-1.900584823E0,3.784672168E0
1.447547458E1,3.270398585E0,1.127417437E0,-1.882901089E0,3.938514123E0
1.448542958E1,3.332971394E0,1.468470908E0,-1.681908898E0,4.011723154E0
1.449538458E1,3.343698111E0,1.677056878E0,-1.322927571E0,3.967741699E0
1.450533958E1,3.092641475E0,1.933022252E0,-8.137318593E-1,3.736731976E0
1.451529458E1,2.647652577E0,2.190249454E0,1.498758316E-2,3.436201604E0
1.452524858E1,1.992634031E0,2.424417577E0,9.574640214E-1,3.281025498E0
1.453520358E1,1.493849578E0,2.755928977E0,1.591383182E0,3.515569872E0
1.454515858E1,1.014801672E0,2.910175602E0,1.474537979E0,3.416607487E0
1.455511358E1,2.863036519E-1,3.064661964E0,1.251023776E0,3.322526632E0
1.456506858E1,-6.422271770E-1,2.998718820E0,1.266794301E0,3.318062403E0
1.457502258E1,-1.938883793E0,2.907865952E0,1.297900611E0,3.728203422E0
1.458497758E1,-3.513820512E0,2.446793118E0,1.046049923E0,4.407715008E0
1.459493258E1,-5.339492562E0,1.430784434E0,8.225734341E-1,5.588734380E0
1.460488758E1,-7.159336692E0,1.212478638E-1,9.020976135E-1,7.216964945E0
1.461484258E1,-7.708207809E0,-1.198573374E0,1.091575467E0,7.876838373E0
1.462479658E1,-7.953768062E0,-2.478343524E0,2.751880950E0,8.773680058E0
1.463475158E1,-6.999303077E0,-2.460227095E0,3.761848582E0,8.318321086E0
1.464470658E1,-5.226412089E0,-1.454507757E0,4.287371767E0,6.914660715E0
1.465466158E1,-3.419229519E0,-5.540675372E-1,5.378778834E0,6.397607607E0
1.466461658E1,-2.405087413E0,4.193973899E-2,5.999409320E0,6.463676709E0
1.467457158E1,-2.212813275E0,4.932506472E-1,3.871907214E0,4.486814490E0
1.468452558E1,-1.504829626E0,-1.449656323E0,-5.053146225E-1,2.149734524E0
1.469448058E1,-2.870063411E-1,-5.089249274E0,-4.534364003E0,6.822264120E0
1.470443558E1,6.396161029E-1,-7.779878300E0,-6.371335505E0,1.007618634E1
1.471439058E1,7.330040306E-2,-8.676410242E0,-5.735299945E0,1.040091982E1
1.472434558E1,-1.069942231E0,-9.942956328E0,-4.086244213E0,1.080298795E1
1.473429958E1,-1.007523789E0,-1.045580860E1,-3.414334523E0,1.104521244E1
1.474425458E1,6.528401658E-1,-4.686463239E0,-2.602937749E0,5.400409512E0
1.475420958E1,9.285504171E-1,8.699306184E-1,-2.242380890E0,2.578227534E0
1.476416458E1,1.802374696E0,3.523439181E0,-2.339681775E0,4.597530752E0
1.477411958E1,3.423492140E0,4.160844160E0,-1.645423442E0,5.633856659E0
1.478407358E1,4.037480773E0,3.432124384E0,-8.889635977E-1,5.373172718E0
1.479402858E1,4.009234921E0,2.490675302E0,-7.703636456E-1,4.782351750E0
1.480398358E1,3.845580710E0,4.020551330E-1,1.521363652E-1,3.869532892E0
1.481393858E1,3.361772439E0,-3.142538690E0,7.485476840E-1,4.662337074E0
1.482389358E1,4.653567388E0,-6.116478179E0,-3.305787688E-1,7.692611850E0
1.483384858E1,4.910648995E0,-6.283353036E0,-2.852795706E0,8.469559745E0
1.484380258E1,3.293907023E0,-3.891254774E0,-3.518616983E0,6.194542167E0
1.485375758E1,2.131324870E0,-1.392135508E0,-1.692660319E0,3.057071463E0
1.486371258E1,1.073756955E0,3.388274360E-1,8.140435159E-2,1.128886486E0
1.487366758E1,6.655151752E-1,1.506535113E0,3.435473084E-1,1.682433728E0
1.488362258E1,1.185058997E0,2.243050981E0,1.553459018E-1,2.541608719E0
1.489357658E1,1.682628982E0,2.309485876E0,7.167049170E-2,2.858339022E0
1.490353158E1,1.656465177E0,1.982753990E0,-8.702674180E-1,2.726271382E0
1.491348658E1,1.430266078E0,1.750515448E0,-1.690096900E0,2.822479924E0
1.492344158E1,1.613423969E0,1.417106043E0,-1.310422423E0,2.515657641E0
1.493339658E1,1.190403498E0,6.986890608E-1,-1.136954831E0,1.788265411E0
1.494335058E1,5.370522858E-1,1.783716524E-1,-1.443856031E0,1.550793939E0
1.495330558E1,1.400188878E-2,7.492288846E-1,-1.475146528E0,1.654568601E0
1.496326058E1,-8.548917259E-1,1.202087551E0,-9.641824722E-1,1.762243508E0
1.497321558E1,-1.044327918E0,1.458783826E0,-6.691974592E-1,1.914809727E0
1.498317058E1,-1.051082476E0,1.621352209E0,-2.076616712E-1,1.943368397E0
1.499312558E1,-8.473340535E-1,1.500451085E0,-2.423666503E-1,1.740135067E0
1.500307958E1,-6.732361311E-1,1.106960369E0,-4.120744832E-1,1.359563726E0
1.501303458E1,-6.168609323E-1,6.847978306E-1,-1.683359300E-1,9.369111291E-1
1.502298958E1,-5.757263549E-1,3.095837563E-1,-3.058006078E-1,7.216764854E-1
1.503294458E1,-4.588542549E-1,1.501810563E-1,-4.278341912E-1,6.450919873E-1
1.504289958E1,-2.578831141E-1,1.248374695E-1,-6.179852787E-1,6.811709764E-1
1.505285358E1,-3.452155191E-1,-1.507879972E-1,-9.356321262E-1,1.008621956E0
1.506280858E1,-5.411938687E-1,-2.996604466E-1,-1.135726916E0,1.293276001E0
1.507276358E1,-7.716800000E-1,-4.662043512E-1,-1.098064926E0,1.420768490E0
1.508271942E1,-9.345869364E-1,-6.008932096E-1,-7.123206747E-1,1.319820493E0
1.509267442E1,-1.152109060E0,-6.561394572E-1,-1.048078322E-1,1.329984569E0
1.510262842E1,-1.187353225E0,-4.135823339E-1,5.061642230E-1,1.355381957E0
1.511258342E1,-1.102674652E0,4.204615831E-2,1.106728819E0,1.562852503E0
1.512253842E1,-7.050609910E-1,7.168785793E-1,1.761106510E0,2.027935413E0
1.513249342E1,-2.202185668E-1,1.912666925E0,2.493380224E0,3.150196172E0
1.514244842E1,-7.703844032E-1,3.048958681E0,3.610116552E0,4.787753407E0
1.515240242E1,4.626390114E-1,4.192433158E0,4.124493774E0,5.899320260E0
1.516235742E1,1.485779544E0,4.336962880E0,4.282014256E0,6.273151836E0
1.517231242E1,1.795357161E0,3.292989303E0,4.092179722E0,5.550947735E0
1.518226742E1,1.476997464E0,1.710752628E0,3.771840012E0,4.397155119E0
1.519222242E1,1.022447637E0,4.593596005E-1,3.376378784E0,3.557575594E0
1.520217642E1,7.198543004E-1,-4.708622432E-1,3.228351842E0,3.340981455E0
1.521213142E1,4.093813287E-1,-1.354190587E0,2.865998719E0,3.196149852E0
1.522208642E1,2.668420717E-2,-2.183469608E0,2.084269255E0,3.018680159E0
1.523204142E1,-5.175326720E-1,-2.915123516E0,1.458909541E0,3.300636640E0
1.524199642E1,-1.195171683E0,-2.990939684E0,1.362156833E0,3.497088329E0
1.525195142E1,-1.834078007E0,-2.419695951E0,1.641746128E0,3.451680892E0
1.526190542E1,-2.397875750E0,-1.438425575E0,1.935369909E0,3.400666542E0
1.527186042E1,-3.044858029E0,-5.416913205E-1,2.001511273E0,3.683834589E0
1.528181542E1,-3.093237891E0,4.782963932E-2,1.780340341E0,3.569316469E0
1.529177042E1,-2.578342021E0,2.729427642E-1,1.479225107E0,2.985038065E0
1.530172542E1,-1.883382022E0,1.577023298E-1,1.386209940E0,2.343837849E0
1.531167942E1,-1.277727717E0,-3.943479180E-2,1.584715894E0,2.036042163E0
1.532163442E1,-9.487254307E-1,-3.483320850E-1,2.207311045E0,2.427681452E0
1.533158942E1,-5.497259065E-1,-6.839166552E-1,2.516359781E0,2.664959120E0
1.534154442E1,-2.883975399E-1,-8.772378838E-1,1.855975830E0,2.073008858E0
1.535149942E1,2.882050934E-1,-1.005900017E0,1.117387124E0,1.530833435E0
1.536145342E1,8.652953844E-1,-1.038999935E0,4.915935097E-1,1.438722053E0
1.537140842E1,1.271929618E0,-1.041772100E0,-3.590389216E-1,1.682855612E0
1.538136342E1,1.682038121E0,-1.076883461E0,-1.458494389E0,2.473082310E0
1.539131842E1,1.585455421E0,-1.108533270E0,-2.451274424E0,3.122700947E0
1.540127342E1,9.793573125E-1,-1.150806885E0,-2.420556076E0,2.853522201E0
1.541122742E1,-3.332797439E-1,-2.012473633E0,-4.891119879E-1,2.097702565E0
1.542118242E1,-1.936761985E0,-4.011404530E0,1.997477864E0,4.881836858E0
1.543113742E1,-3.497803526E0,-5.789904753E0,1.555937361E0,6.941078276E0
1.544109242E1,-4.610078722E0,-6.333581203E0,-2.712188296E0,8.289936190E0
1.545104742E1,-4.847559000E0,-5.790263187E0,-6.129729139E0,9.726230275E0
1.546100242E1,-4.246445643E0,-3.910276351E0,-8.429247851E0,1.021639766E1
1.547095642E1,-4.020299900E0,-2.006839841E0,-7.784593495E0,8.988332065E0
1.548091142E1,-4.600538989E0,2.778515017E-1,-6.783834350E0,8.201376039E0
1.549086642E1,-4.734661837E0,2.371782112E0,-3.346188733E0,6.264132193E0
1.550082142E1,-3.945555527E0,2.432192620E0,-9.138385302E-1,4.724200484E0
1.551077642E1,-1.670468528E0,1.463663912E0,-6.343062463E-1,2.309788208E0
1.552073042E1,5.316962363E-1,9.536592382E-1,-2.911870418E0,3.109848254E0
1.553068542E1,1.411595773E0,5.822973096E-1,-2.778946834E0,3.170838736E0
1.554064042E1,1.232690123E0,5.764629579E-1,-1.011080942E0,1.695322729E0
1.555059542E1,2.226741196E0,4.557711643E-1,-7.050806522E-1,2.379756802E0
1.556055042E1,2.717063412E0,7.707694423E-1,-8.406196958E-1,2.946720311E0
1.557050442E1,2.321503366E0,1.164851897E0,-1.197293126E0,2.860029484E0
1.558045942E1,1.172126125E0,1.566049243E0,-1.684024420E0,2.581148608E0
1.559041442E1,1.102320603E0,1.900701767E0,-2.254674661E0,3.148227398E0
1.560036942E1,1.538936289E0,1.824217848E0,-2.439010473E0,3.412457728E0
1.561032442E1,1.773889693E0,1.483325175E0,-2.250650607E0,3.226819855E0
1.562027842E1,1.976180550E0,1.228809911E0,-1.857590831E0,2.977567306E0
1.563023342E1,2.002667853E0,1.070738622E0,-1.718965627E0,2.848157747E0
1.564018842E1,2.037382772E0,9.882712466E-1,-1.747676041E0,2.860416081E0
1.565014342E1,2.109308495E0,1.123122658E0,-1.502591458E0,2.822829772E0
1.566009842E1,2.009572245E0,1.344695878E0,-1.220553935E0,2.708567799E0
1.567005242E1,1.974904396E0,1.784733354E0,-9.807523119E-1,2.836793192E0
1.568000742E1,1.958164987E0,2.120662326E0,-5.091457182E-1,2.931014871E0
1.568996242E1,1.752386557E0,2.368277290E0,-1.502041528E-1,2.949941908E0
1.569991742E1,1.314076641E0,2.650627640E0,1.008048284E-1,2.960200317E0
1.570987242E1,8.472805515E-1,2.895382732E0,4.628378168E-1,3.052104903E0
1.571982642E1,2.634809460E-1,2.880826673E0,3.021472675E-1,2.908586856E0
1.572978142E1,-2.801820557E-1,3.081413067E0,1.458722430E-1,3.097561490E0
1.573973642E1,-1.021763805E0,3.186801528E0,5.687732846E-1,3.394585144E0
1.574969142E1,-2.174071086E0,3.048685032E0,6.597862194E-1,3.802155095E0
1.575964642E1,-3.882407059E0,2.760512025E0,8.716900456E-1,4.842866377E0
1.576960042E1,-5.887260894E0,2.440096301E0,1.901704272E0,6.650593201E0
1.577955542E1,-7.305528778E0,1.194680883E0,2.478403165E0,7.806439354E0
1.578951042E1,-7.759586123E0,-3.439905274E-1,1.919039220E0,8.000763577E0
1.579946542E1,-7.894127047E0,-9.028761703E-1,1.972519463E0,8.186773494E0
1.580942042E1,-6.476277823E0,-1.341382261E0,2.694501930E0,7.141555956E0
1.581937542E1,-4.302273104E0,-1.935264659E0,2.503414630E0,5.340588729E0
1.582932942E1,-2.959843606E0,-1.963479229E0,2.337857736E0,4.252235136E0
1.583928442E1,-3.258687782E0,-8.250210786E-1,2.547255591E0,4.217607958E0
1.584923942E1,-3.568124481E0,-1.707679331E-2,2.062529308E0,4.121387032E0
1.585919442E1,-3.638831059E0,-1.378171772E0,2.980504158E-1,3.902471391E0
1.586914842E1,-3.034785030E0,-3.794686253E0,-1.971542831E0,5.243714816E0
1.587910342E1,-1.776727785E0,-5.726308097E0,-3.324390313E0,6.855577072E0
1.588905842E1,-2.639782517E-1,-6.962059237E0,-3.398272221E0,7.751658367E0
1.589901342E1,5.551299763E-1,-8.145381904E0,-3.334335549E0,8.818912019E0
1.590896842E1,1.188723739E0,-8.118330345E0,-3.854540107E0,9.065198903E0
1.591892342E1,2.139745006E0,-6.076675597E0,-4.588848066E0,7.909615767E0
1.592887742E1,1.517130268E0,-2.561750547E0,-3.579538538E0,4.655893712E0
1.593883242E1,1.193073775E0,4.700553274E-1,-6.306264473E-1,1.429009013E0
1.594878742E1,2.503629808E0,2.621874542E0,1.607146252E0,3.965514771E0
1.595874242E1,3.079133530E0,2.778819657E0,8.042042600E-1,4.224884196E0
1.596869642E1,3.312407029E0,1.496987779E0,-2.468102418E0,4.393693467E0
1.597865142E1,3.702985539E0,6.785144126E-1,-2.846255887E0,4.719497462E0
1.598860642E1,2.902843486E0,-8.649534684E-1,-7.781144223E-1,3.127316240E0
1.599856142E1,2.124530843E0,-3.690391222E0,-3.484566307E-1,4.272474774E0
1.600851642E1,2.476501066E0,-5.527276477E0,-2.234061033E0,6.455607755E0
1.601847142E1,2.551161532E0,-4.904309444E0,-3.224298260E0,6.399748085E0
1.602842542E1,1.661810556E0,-2.617851657E0,-2.549549454E0,4.014344784E0
1.603838042E1,8.434203659E-1,-3.052948236E-1,-9.876309764E-1,1.334158082E0
1.604833542E1,5.419605848E-1,1.241176772E0,2.349136430E-1,1.374563740E0
1.605829042E1,1.088846279E0,1.560520701E0,6.241873473E-1,2.002603536E0
1.606824442E1,1.821112391E0,1.484211028E0,2.334394138E-1,2.360895313E0
1.607820196E1,2.386521042E0,1.295378122E0,3.979427862E-1,2.744420818E0
1.608815696E1,2.329665933E0,9.624452645E-1,2.972467160E-1,2.538109504E0
1.609811196E1,2.602037278E0,7.447697979E-1,-5.591066676E-1,2.763671528E0
1.610806696E1,2.522758974E0,3.433385628E-1,-1.206357188E0,2.817355475E0
1.611802196E1,1.487753856E0,6.408092272E-1,-1.518312136E0,2.220207140E0
1.612797596E1,3.546600880E-1,1.058025021E0,-1.606719552E0,1.956207668E0
1.613793096E1,-2.166897722E-1,1.382851299E0,-1.614737254E0,2.136962464E0
1.614788596E1,-8.394433822E-1,1.839536968E0,-1.547798183E0,2.546417221E0
1.615784096E1,-8.428420763E-1,2.316888451E0,-1.238436328E0,2.758999710E0
1.616779596E1,-1.041642000E-1,2.300677046E0,-3.980265476E-1,2.337175685E0
1.617774996E1,3.830730245E-1,1.803626878E0,-5.763237941E-1,1.931829178E0
1.618770496E1,3.420596306E-1,1.419053165E0,-4.987948309E-1,1.542567003E0
1.619765996E1,1.688063385E-1,1.140739149E0,2.184695184E-2,1.153368404E0
1.620761496E1,6.019650042E-2,6.107878679E-1,1.754049213E-1,6.383199234E-1
1.621756996E1,-2.099453013E-1,1.682296568E-1,3.205520365E-1,4.184875806E-1
1.622752396E1,-3.592880130E-2,-5.483460367E-2,1.964220071E-1,2.070732175E-1
1.623747896E1,5.002102956E-2,-7.567992747E-2,9.174153451E-2,1.290196263E-1
1.624743396E1,-1.433504851E-1,-2.523073554E-3,1.217121327E-1,1.880679950E-1
1.625738896E1,-3.078003556E-1,1.234125030E-1,3.589915957E-1,4.887194190E-1
1.626734396E1,-6.352727911E-1,2.506806600E-1,7.780433786E-1,1.035260263E0
1.627729796E1,-1.116046576E0,3.372615516E-1,1.326165467E0,1.765791653E0
1.628725296E1,-1.367973936E0,6.896556973E-1,1.903058195E0,2.443073508E0
1.629720796E1,-1.425935338E0,1.137456522E0,2.352531323E0,2.976827599E0
1.630716296E1,-1.297673447E0,1.850214568E0,2.735777718E0,3.548482781E0
1.631711796E1,-1.142799635E0,2.540709341E0,3.379621650E0,4.379844456E0
1.632707196E1,-7.724730286E-1,3.494979029E0,3.799976814E0,5.220288955E0
1.633702696E1,-2.844522042E-1,4.363444920E0,3.960189353E0,5.899463055E0
1.634698196E1,-4.684838882E-1,4.133457556E0,4.093475465E0,5.836222228E0
1.635693696E1,8.337785996E-2,3.554945149E0,3.554379723E0,5.027743241E0
1.636689196E1,9.325665772E-2,2.325407844E0,3.429278544E0,4.144414287E0
1.637684596E1,1.946842146E-1,1.127657758E0,3.383388426E0,3.571670646E0
1.638680096E1,1.085533393E-1,-1.871372133E-1,3.545673219E0,3.552267268E0
1.639675596E1,-1.971317129E-1,-1.489550706E0,3.475251693E0,3.786158547E0
1.640671096E1,-3.299906120E-1,-2.688463218E0,3.131378109E0,4.140320899E0
1.641666596E1,-5.450312501E-1,-3.142843330E0,2.614180191E0,4.124131585E0
1.642661996E1,-1.285368128E0,-2.615077153E0,2.412831320E0,3.783193719E0
1.643657496E1,-2.517886197E0,-1.644081506E0,2.076983625E0,3.654670419E0
1.644652996E1,-3.742795138E0,-6.886002749E-1,1.381498253E0,4.048607564E0
1.645648496E1,-4.117501381E0,-4.416975009E-1,8.136038053E-1,4.220292106E0
