"Time (s)","Linear Acceleration x (m/s^2)","Linear Acceleration y (m/s^2)","Linear Acceleration z (m/s^2)","Absolute acceleration (m/s^2)"
1.749833333E-3,5.308757257E-1,7.965361336E0,-1.793173810E0,8.181948580E0
1.170383333E-2,7.884259140E-1,8.549408718E0,-2.254137448E-1,8.588644608E0
2.165783333E-2,1.060293448E0,9.303811803E0,1.142062958E0,9.433421652E0
3.161183334E-2,1.142344283E0,9.963474208E0,2.142161368E0,1.025498045E1
4.156683333E-2,8.466826737E-1,1.047145575E1,2.760634232E0,1.086229066E1
5.152083333E-2,4.712328836E-1,1.066241528E1,3.029414363E0,1.109443606E1
6.147483334E-2,4.562390877E-1,1.033056592E1,2.886524785E0,1.073595695E1
7.142883333E-2,5.873807327E-1,9.944761949E0,2.410182531E0,1.024950175E1
8.138283333E-2,3.886444708E-1,9.821065271E0,1.882325138E0,1.000737306E1
9.133683333E-2,4.464174465E-1,9.387919908E0,1.562807547E0,9.527575565E0
1.012918333E-1,5.745405395E-1,9.036259003E0,1.085555466E0,9.119347798E0
1.112458333E-1,5.723365778E-1,9.036236199E0,4.401795638E-1,9.065036781E0
1.211998333E-1,8.275673948E-1,9.011279697E0,5.577907518E-2,9.049372403E0
1.311538333E-1,1.299049004E0,8.920632652E0,-7.588525245E-1,9.046605572E0
1.411078333E-1,1.925426280E0,8.409780716E0,-1.619851813E0,8.778131803E0
1.510618333E-1,2.042844948E0,7.386753620E0,-9.539814198E-1,7.723174546E0
1.610168333E-1,9.349901019E-1,5.570670419E0,8.339006603E-1,5.709813107E0
1.709708333E-1,-4.999514101E-1,1.181529325E0,4.951529803E0,5.115037669E0
1.809248333E-1,-1.131807235E0,-5.934931489E0,5.373249707E0,8.085555751E0
1.908788333E-1,-1.770501962E0,-1.402618162E1,2.990516053E-1,1.414064638E1
2.008328333E-1,-2.395702194E0,-2.933025118E1,-3.975382758E0,2.969523011E1
2.107868333E-1,-6.301098751E0,-4.102056604E1,-1.361045044E1,4.367648160E1
2.207418333E-1,-6.647511195E0,-2.867128401E1,-5.316229999E0,2.990809645E1
2.306958333E-1,-1.526553202E0,-1.871960714E1,2.853384520E0,1.899725926E1
2.406498333E-1,-6.469746776E-1,-1.990288595E1,-1.675985084E0,1.998380273E1
2.506038333E-1,-9.581004909E-1,-2.262482565E1,-7.392426589E0,2.382118098E1
2.605578333E-1,3.541642441E-1,-2.079889925E1,-6.488035405E0,2.179023280E1
2.705118333E-1,2.665216443E0,-1.630723424E1,-3.639015831E0,1.691956570E1
2.804658333E-1,3.691171825E0,-1.330890368E1,-2.920842093E0,1.411676256E1
2.904208333E-1,2.588231417E0,-1.227342377E1,-1.809914681E0,1.267326572E1
3.003748333E-1,6.678170047E-1,-1.149291520E1,-6.728695107E-1,1.153194835E1
3.103288333E-1,-1.379300577E0,-9.239186622E0,-3.060187089E-1,9.346586915E0
3.202828333E-1,-3.183232972E0,-5.530949698E0,1.989190605E-1,6.384664871E0
3.302368333E-1,-4.274754353E0,-1.712572281E0,8.562474029E-1,4.683971414E0
3.401908333E-1,-4.379404310E0,1.136701062E0,1.308965882E0,4.710059776E0
3.501458333E-1,-3.343956850E0,3.871914523E0,2.191093208E0,5.565488203E0
3.600998333E-1,-1.556016006E0,6.953010086E0,3.662914278E0,8.011396637E0
3.700538333E-1,-7.133171864E-2,9.375351318E0,2.626280419E0,9.736511150E0
3.800078333E-1,1.366459069E0,1.114616596E1,1.432482612E0,1.132061096E1
3.899618333E-1,1.747006388E0,1.283949505E1,8.408540229E-1,1.298505680E1
3.999158333E-1,1.420513069E0,1.422766264E1,-3.606796503E-1,1.430294835E1
4.098708333E-1,2.423953747E-1,1.446882053E1,-1.932894198E0,1.459936995E1
4.198248333E-1,-1.536498585E0,1.332097467E1,-2.207513359E0,1.358978695E1
4.297788333E-1,-2.837089792E0,1.111879865E1,-1.762537909E0,1.160962109E1
4.397328333E-1,-3.267927844E0,9.265674509E0,-1.736984407E0,9.977434105E0
4.496868333E-1,-2.768429155E0,7.938413858E0,-2.028946409E0,8.648655277E0
4.596408333E-1,-1.258718858E0,7.323225961E0,-1.894955124E0,7.668433123E0
4.695958333E-1,5.119469731E-1,7.666313678E0,-7.548183842E-1,7.720376021E0
4.795503750E-1,1.914089406E0,8.774085640E0,1.209323480E0,9.061499896E0
4.895043750E-1,2.649653494E0,1.005740037E1,3.005651278E0,1.082616763E1
4.994583750E-1,2.604456271E0,1.085755909E1,3.743452950E0,1.177638407E1
5.094123750E-1,2.156361916E0,1.093856408E1,3.748714567E0,1.176243774E1
5.193663750E-1,1.701032947E0,1.043470716E1,2.909631811E0,1.096551795E1
5.293213750E-1,1.127441046E0,9.817512503E0,2.047903082E0,1.009200585E1
5.392753750E-1,5.846171194E-1,9.442516530E0,1.585872474E0,9.592595430E0
5.492293750E-1,6.598539010E-2,9.433303072E0,1.026046964E0,9.489169262E0
5.591833750E-1,-1.621386123E-1,9.525254631E0,4.278862314E-1,9.536238847E0
5.691373750E-1,1.240628596E-1,9.571216670E0,-9.861555777E-2,9.572528671E0
5.790913750E-1,7.297193572E-1,9.567698985E0,-5.050952788E-1,9.608770756E0
5.890463750E-1,1.421052182E0,9.455518398E0,-6.480587514E-1,9.583642190E0
5.990003750E-1,2.031729684E0,9.228272209E0,-6.289206684E-1,9.470188735E0
6.089543750E-1,2.503111745E0,8.808717529E0,-1.003659510E0,9.212296420E0
6.189083750E-1,2.363626415E0,7.323740516E0,-2.080712102E0,7.972030345E0
6.288623750E-1,1.028782511E0,4.992995918E0,-3.921252744E0,6.431533625E0
6.388163750E-1,-1.924344253E-1,1.297201869E0,-2.424732596E0,2.756645037E0
6.487713750E-1,-2.116823629E0,-3.794297998E0,4.090852404E0,5.967638809E0
6.587253750E-1,-3.702945778E0,-1.037576255E1,1.745661529E0,1.115417367E1
6.686793750E-1,-5.113985919E0,-2.230912045E1,2.418960663E0,2.301523577E1
6.786333750E-1,-8.537433035E0,-3.737357110E1,-4.750016041E0,3.862944773E1
6.885873750E-1,-1.096207690E1,-4.318850779E1,-1.489688700E1,4.698224747E1
6.985413750E-1,-5.631920003E0,-2.975992563E1,-1.141536826E1,3.236792130E1
7.084953750E-1,5.565730691E-1,-1.922169469E1,-2.649693840E0,1.941144502E1
7.184503750E-1,1.765833545E0,-1.832779107E1,-1.900071437E0,1.851043935E1
7.284043750E-1,2.810868246E0,-1.764317333E1,-3.851047565E0,1.827602563E1
7.383583750E-1,4.628278180E0,-1.697436179E1,-4.897892125E0,1.826305737E1
7.483123750E-1,4.598135199E0,-1.563749650E1,-4.382191093E0,1.687832169E1
7.582663750E-1,2.159012020E0,-1.454448584E1,-1.862831836E0,1.482138805E1
7.682203750E-1,-6.441728380E-1,-1.323441015E1,-2.323402834E-1,1.325211503E1
7.781753750E-1,-2.434042241E0,-1.048215615E1,1.095647614E0,1.081668169E1
7.881293750E-1,-4.023936283E0,-6.899720902E0,1.442428433E0,8.116576342E0
7.980833750E-1,-5.302984301E0,-3.625775980E0,1.751325288E0,6.658455844E0
8.080373750E-1,-4.083829313E0,-8.755369288E-1,1.925836608E0,4.599247048E0
8.179913750E-1,-1.240456395E0,2.176353546E0,2.118807589E0,3.280943832E0
8.279453750E-1,4.817073664E-1,5.469301334E0,2.162827621E0,5.901111962E0
8.379003750E-1,8.690908121E-1,8.217741782E0,1.848079019E0,8.467703047E0
8.478543750E-1,3.968303169E-1,1.056594090E1,1.946611619E0,1.075108731E1
8.578083750E-1,-2.999198803E-1,1.235664017E1,2.175657728E0,1.255029859E1
8.677623750E-1,-3.942762896E-1,1.311486968E1,1.549196252E0,1.321193663E1
8.777163750E-1,3.349825262E-1,1.261376212E1,5.683435142E-1,1.263100244E1
8.876703750E-1,1.067723798E0,1.146767160E1,3.543076470E-2,1.151732527E1
8.976253750E-1,1.293552475E0,1.053626044E1,-1.053296231E0,1.066749713E1
9.075793750E-1,9.156722170E-1,9.685290000E0,-1.164689198E0,9.797948710E0
9.175333750E-1,6.714933684E-1,8.646351460E0,1.524347194E-1,8.673726607E0
9.274873750E-1,5.302066581E-1,7.983050918E0,1.593538466E0,8.157792955E0
9.374413750E-1,3.884369677E-1,8.047220017E0,2.565380498E0,8.455164716E0
9.473953750E-1,4.455036729E-1,8.618795287E0,2.698670118E0,9.042396039E0
9.573503750E-1,5.385265882E-1,9.340182654E0,2.355086557E0,9.647562158E0
9.673043750E-1,7.438349012E-1,9.893378956E0,2.101560495E0,1.014143945E1
9.772583750E-1,8.862999717E-1,1.025709682E1,1.810444293E0,1.045328998E1
9.872123750E-1,7.572224669E-1,1.037500358E1,1.452464740E0,1.050351080E1
9.971663750E-1,3.533404445E-1,1.037129060E1,1.064346300E0,1.043174728E1
1.007120375E0,-2.724204616E-1,1.036273145E1,5.926563831E-1,1.038323926E1
1.017075375E0,-8.568628223E-1,1.024891189E1,1.157551356E-1,1.028532003E1
1.027029375E0,-1.050207440E0,1.012164841E1,-8.175335728E-2,1.017631494E1
1.036983375E0,-7.858688535E-1,9.869442794E0,-3.850720413E-1,9.908166904E0
1.046937375E0,-3.000524294E-1,9.583891094E0,-5.830247033E-1,9.606295736E0
1.056891375E0,3.877405643E-2,9.424635159E0,-6.525247085E-1,9.447276846E0
1.066845375E0,2.755884100E-1,9.355176669E0,-6.017673683E-1,9.378560841E0
1.076799375E0,4.829477070E-1,9.372355789E0,-4.933914920E-1,9.397751150E0
1.086754375E0,4.516210299E-1,9.457144509E0,-5.659555113E-1,9.484822057E0
1.096708375E0,4.160994872E-1,9.108775002E0,-1.432402943E0,9.230097454E0
1.106662375E0,2.527090591E-1,7.408149167E0,-3.591473290E0,8.236699359E0
1.116616375E0,-3.219780263E-1,4.053180547E0,-5.045942456E0,6.480237470E0
1.126570375E0,-1.759791910E0,-1.473142249E0,-5.106017919E0,5.598074190E0
1.136524375E0,-2.898824110E0,-9.143598095E0,3.068775480E0,1.007104514E1
1.146479375E0,-4.708121618E0,-2.331686000E1,-6.875562546E-1,2.379737597E1
1.156433375E0,-4.906433737E0,-4.039032975E1,-6.813666844E-1,4.069294890E1
1.166387375E0,-4.533254494E0,-4.385322394E1,-7.892092216E-1,4.409397348E1
1.176341375E0,-5.061193163E0,-2.845056097E1,-1.156379398E1,3.112509321E1
1.186295375E0,-3.303676844E-5,-1.892912574E1,-4.398543416E0,1.943345017E1
1.196249375E0,2.783637178E0,-1.784581678E1,-2.123605960E0,1.818602526E1
1.206204375E0,4.122121559E0,-2.083024032E1,-2.965540549E0,2.144027119E1
1.216158375E0,3.581370471E0,-2.190468959E1,-4.465985202E0,2.264037686E1
1.226112375E0,2.341553176E0,-1.973273432E1,-4.599577707E0,2.039656319E1
1.236066375E0,9.481312075E-1,-1.594132367E1,-3.430094815E0,1.633371678E1
1.246020375E0,-5.392189716E-1,-1.192503847E1,-1.579000972E0,1.204120192E1
1.255974375E0,-1.730093317E0,-8.082073515E0,-5.788940839E-1,8.285424162E0
1.265928375E0,-2.043100179E0,-4.116945603E0,-4.012640047E-1,4.613514089E0
1.275883375E0,-2.340310497E0,-6.526855069E-1,1.429376717E-1,2.433820612E0
1.285837375E0,-2.767745031E0,2.664510099E0,1.554797885E0,4.144565488E0
1.295791375E0,-2.698778584E0,6.693113630E0,3.506106280E0,8.023338280E0
1.305745375E0,-1.916421129E0,9.997232523E0,3.926395955E0,1.091026642E1
1.315699375E0,-1.234486973E0,1.191974908E1,3.268050928E0,1.242113252E1
1.325653375E0,-1.229140863E0,1.308854551E1,2.550474776E0,1.339125582E1
1.335608375E0,-8.182336307E-1,1.323587430E1,1.315619867E0,1.332624217E1
1.345562375E0,-3.374420113E-1,1.290311393E1,3.393241569E-2,1.290757017E1
1.355516375E0,-1.215507495E-1,1.233479848E1,-1.021400986E0,1.237761238E1
1.365470375E0,9.175648145E-2,1.082851012E1,-1.676966100E0,1.095797728E1
1.375424375E0,2.529298281E-1,8.861039000E0,-1.890040977E0,9.063897646E0
1.385378375E0,4.121248423E-1,7.725240748E0,-1.474035265E0,7.875402940E0
1.395333375E0,5.749001433E-1,7.466180443E0,-4.246821034E-1,7.500314358E0
1.405287375E0,7.859245482E-1,7.913718728E0,6.082274453E-1,7.975873753E0
1.415241375E0,9.523355017E-1,8.759980987E0,1.500179189E0,8.938386174E0
1.425195375E0,1.083083117E0,9.597783494E0,2.211405265E0,9.908624036E0
1.435149375E0,1.044756373E0,1.016821096E1,2.842697564E0,1.060966349E1
1.445103375E0,7.862792549E-1,1.034600724E1,2.900629438E0,1.077366011E1
1.455058375E0,2.789124059E-1,1.024701973E1,2.515265182E0,1.055489291E1
1.465012375E0,-3.229913487E-1,9.957118285E0,2.079398525E0,1.017705390E1
1.474966375E0,-8.825108298E-1,9.776506564E0,1.527516092E0,9.934395370E0
1.484919625E0,-1.226812356E0,9.859427683E0,8.296333623E-1,9.970038832E0
1.494873625E0,-1.264378524E0,1.000583027E1,1.401495000E-1,1.008637369E1
1.504827625E0,-8.788975429E-1,1.007981275E1,-3.345040047E-1,1.012358528E1
1.514782625E0,-2.655686943E-1,1.002456241E1,-4.699804831E-1,1.003908661E1
1.524736625E0,5.231277265E-1,9.816492748E0,-3.033254083E-1,9.835100345E0
1.534690625E0,1.050483428E0,9.682602035E0,-7.829063617E-2,9.739734443E0
1.544644625E0,1.372294444E0,9.466855565E0,3.720802590E-2,9.565873236E0
1.554598625E0,1.869266259E0,9.137014130E0,-1.530670957E-1,9.327519128E0
1.564552625E0,2.460164530E0,8.317972414E0,-1.697628114E0,8.838722521E0
1.574506625E0,2.266683088E0,7.032187234E0,-2.225792632E0,7.716454001E0
1.584461625E0,9.546173776E-1,3.836468702E0,-3.865812954E0,5.529402882E0
1.594415625E0,1.119165408E0,-5.298764366E-1,2.476988139E0,2.769254501E0
1.604369625E0,8.953947309E-1,-4.754705508E0,3.376669976E0,5.900072568E0
1.614323625E0,1.336553923E0,-1.305998888E1,4.413883002E0,1.385034473E1
1.624277625E0,2.041944331E0,-2.825498330E1,1.328302917E0,2.835979561E1
1.634231625E0,-4.587239790E0,-4.318319851E1,-9.106945993E0,4.437079972E1
1.644186625E0,-1.294669089E1,-4.215367692E1,-3.857326305E-1,4.409873096E1
1.654140625E0,-1.201046045E1,-2.986921010E1,-6.233950496E0,3.279150821E1
1.664094625E0,-6.434179040E0,-2.248801952E1,-8.746246462E0,2.497211463E1
1.674048625E0,5.669936845E-1,-2.207362968E1,-5.031177505E-1,2.208664159E1
1.684002625E0,5.522188815E0,-1.732638288E1,-2.902739114E0,1.841531991E1
1.693956625E0,7.873121510E0,-1.484131389E1,-4.832937745E0,1.748164545E1
1.703910625E0,8.363124028E0,-1.468875419E1,-5.413472704E0,1.774843739E1
1.713865625E0,6.031670748E0,-1.365884550E1,-5.523538352E0,1.592025717E1
1.723819625E0,2.429401159E0,-1.215020305E1,-2.866816159E0,1.271802104E1
1.733773625E0,4.227972534E-1,-9.134512106E0,3.746767151E-1,9.151964356E0
1.743727625E0,-9.581386440E-2,-4.675552919E0,-1.452214479E-1,4.678788803E0
1.753681625E0,-1.081831959E0,-6.613598514E-1,-1.542408804E0,1.996692806E0
1.763635625E0,-2.698390913E0,2.389780426E0,6.845556097E-1,3.668920875E0
1.773590625E0,-3.410981437E0,5.528026675E0,3.488294492E0,7.373063932E0
1.783544625E0,-2.861597812E0,8.994575956E0,4.839773140E0,1.060728725E1
1.793498625E0,-2.382242927E0,1.216946729E1,4.242172498E0,1.310599264E1
1.803452625E0,-1.638274197E0,1.417407876E1,2.220799256E0,1.444023547E1
1.813406625E0,-1.035324814E0,1.440394450E1,7.497965030E-1,1.446055702E1
1.823360625E0,-5.657557193E-1,1.351926545E1,-3.609588549E-2,1.353114632E1
1.833314625E0,-8.877169713E-1,1.171314006E1,-3.459902751E-1,1.175182542E1
1.843269625E0,-1.290691579E0,9.909245961E0,-4.625837553E-1,1.000365053E1
1.853223625E0,-1.163483648E0,8.606171733E0,-3.131895880E-1,8.690107814E0
1.863177625E0,-5.585496838E-1,7.825133995E0,2.447305334E-1,7.848859333E0
1.873131625E0,1.731813348E-1,7.854509822E0,1.077251251E0,7.929929797E0
1.883085625E0,8.975807125E-1,8.506273223E0,1.977338738E0,8.779077615E0
1.893039625E0,1.511525127E0,9.542570575E0,2.377940984E0,9.949872598E0
1.902994625E0,1.809012017E0,1.032437021E1,2.201301131E0,1.071031612E1
1.912948625E0,1.797549866E0,1.068596436E1,1.975087560E0,1.101462622E1
1.922902625E0,1.408342236E0,1.048209534E1,1.530257267E0,1.068641370E1
1.932856625E0,8.608452878E-1,1.000484443E1,1.135142194E0,1.010576640E1
1.942810625E0,3.402500635E-1,9.700634848E0,8.018639119E-1,9.739664896E0
1.952764625E0,-1.849177565E-1,9.703927415E0,6.275819483E-1,9.725958100E0
1.962719625E0,-5.575270058E-1,9.863263457E0,4.954766822E-1,9.891425556E0
1.972673625E0,-7.978830544E-1,1.013645941E1,4.044846511E-1,1.017585547E1
1.982627625E0,-9.008834392E-1,1.027272877E1,3.763102810E-1,1.031901917E1
1.992581625E0,-9.310511251E-1,1.006188869E1,4.549249260E-1,1.011510835E1
2.002535625E0,-8.026981634E-1,9.631992629E0,5.261942987E-1,9.679694561E0
2.012489625E0,-4.048779494E-1,9.181260595E0,3.454266036E-1,9.196672866E0
2.022443625E0,2.694437903E-1,8.915445587E0,-2.997282743E-2,8.919566601E0
2.032398625E0,1.025864019E0,8.745794472E0,-6.635855940E-1,8.830722721E0
2.042352625E0,1.716563591E0,8.354529206E0,-1.971082655E0,8.753851475E0
2.052306625E0,1.696562313E0,7.201452432E0,-3.602234505E0,8.228932753E0
2.062260625E0,2.143910855E-2,3.805549210E0,-7.293449600E0,8.226607532E0
2.072214625E0,-1.593572380E0,-9.821258229E-1,-1.671821866E0,2.509787324E0
2.082168625E0,-9.056315245E-1,-7.940907696E0,2.360174804E0,8.333583179E0
2.092123625E0,1.382446964E0,-1.656722718E1,7.805986118E-1,1.664312201E1
2.102077625E0,8.034999921E0,-2.826280922E1,-4.434094487E0,2.971546403E1
2.112031625E0,2.716479275E0,-3.358618685E1,-1.368064743E1,3.636717367E1
2.121985625E0,-7.080181180E0,-2.412403537E1,4.191233894E0,2.548851682E1
2.131939625E0,-4.970166049E0,-1.631263356E1,8.577712165E0,1.908878494E1
2.141893625E0,-3.510366854E0,-1.550423963E1,-4.714270842E0,1.658096714E1
2.151847625E0,-4.087070132E0,-1.900095060E1,-6.807542471E0,2.059327319E1
2.161802625E0,-2.983548803E0,-1.758743767E1,-3.055618075E0,1.809851732E1
2.171756625E0,-2.503537276E-1,-1.561286101E1,-3.995165935E0,1.611786142E1
2.181710625E0,1.250105763E0,-1.664675867E1,-3.231548807E0,1.700353629E1
2.191664625E0,9.419156903E-1,-1.968810135E1,-3.742256609E0,2.006272725E1
2.201618625E0,-5.971928722E-1,-2.123370054E1,-4.535453632E0,2.172088897E1
2.211572625E0,-2.117322688E0,-1.879714941E1,-3.890705720E0,1.931200332E1
2.221527625E0,-2.444107199E0,-1.373237541E1,-2.680314538E0,1.420337567E1
2.231481625E0,-2.536899588E0,-8.836331005E0,-1.201583813E0,9.271483636E0
2.241435625E0,-1.292409491E0,-5.110578162E0,-5.003930211E-1,5.295160490E0
2.251389625E0,8.664899705E-1,-1.537656918E0,-3.542022510E-1,1.800181352E0
2.261343625E0,2.526416115E0,1.690280941E0,2.355666308E-1,3.048822672E0
2.271297625E0,3.540023347E0,4.919469520E0,6.971576750E-1,6.100735569E0
2.281251625E0,3.756358632E0,7.813771686E0,1.008791904E0,8.728282720E0
2.291206625E0,3.571519666E0,1.021419931E1,1.170613816E0,1.088374737E1
2.301160625E0,2.876856413E0,1.142409348E1,1.371217679E0,1.186028889E1
2.311114625E0,1.090234993E0,1.128597522E1,1.556347689E0,1.144482710E1
2.321068625E0,-9.232253578E-1,1.063560580E1,1.596487509E0,1.079431462E1
2.331022625E0,-2.667740686E0,9.747312586E0,6.446518712E-1,1.012632801E1
2.340976625E0,-3.659002491E0,9.027505721E0,-8.881370938E-1,9.781254841E0
2.350931625E0,-3.502875109E0,8.538855078E0,-1.627966579E0,9.371897100E0
2.360885625E0,-2.887383741E0,7.952221473E0,-1.748066050E0,8.638897276E0
2.370839625E0,-2.508664845E0,7.529418665E0,-2.011273785E0,8.187231948E0
2.380793625E0,-2.227446224E0,7.713438143E0,-1.590243852E0,8.184590410E0
2.390747625E0,-2.037698375E0,8.604805824E0,-6.258976579E-2,8.843009409E0
2.400701625E0,-1.822962597E0,9.646645167E0,1.112029320E0,9.880160161E0
2.410655625E0,-1.578909171E0,1.037221329E1,1.627605221E0,1.061719650E1
2.420610625E0,-1.185334986E0,1.066734098E1,2.018612040E0,1.092117105E1
2.430564625E0,-8.319335108E-1,1.078517524E1,2.311681505E0,1.106146417E1
2.440518625E0,-7.224103376E-1,1.066945182E1,2.341749058E0,1.094727672E1
2.450472625E0,-6.560098683E-1,1.023464819E1,2.248260412E0,1.049919270E1
2.460426625E0,-5.853148384E-1,9.773498172E0,1.928746183E0,9.979174405E0
2.470380625E0,-5.545970391E-1,9.387456223E0,1.462116154E0,9.516811224E0
2.480335375E0,-3.279791699E-1,9.200483902E0,1.016394600E0,9.262263888E0
2.490290375E0,5.116077066E-2,9.130979803E0,6.338146417E-1,9.153094045E0
2.500244375E0,4.170549222E-1,9.156514009E0,3.303513122E-1,9.171958111E0
2.510198375E0,6.132906955E-1,9.140567483E0,2.017991066E-1,9.163341217E0
2.520152375E0,5.960501436E-1,8.990586986E0,4.051149809E-1,9.019426161E0
2.530106375E0,4.638616642E-1,8.746027191E0,7.452944393E-1,8.789972871E0
2.540060375E0,2.868218980E-1,8.479052680E0,1.148181777E0,8.561245385E0
2.550015375E0,1.911301307E-1,8.197551346E0,1.472526537E0,8.330949118E0
2.559969375E0,1.424097047E-1,7.789149646E0,1.364370735E0,7.909022710E0
2.569923375E0,4.705985337E-3,7.168003435E0,8.340352924E-1,7.216364061E0
2.579877375E0,2.593324196E-2,6.669486201E0,7.173295458E-1,6.708001222E0
2.589831375E0,9.852736714E-1,4.899885440E0,-1.180447590E-1,4.999357569E0
2.599785375E0,1.519095517E0,1.181988916E0,-2.966549778E0,3.536264494E0
2.609740375E0,1.388609637E0,-2.175084116E0,6.443550957E0,6.941078920E0
2.619694375E0,-9.976789780E-2,-8.042959735E0,-5.074237132E-1,8.059567840E0
2.629648375E0,2.816405852E0,-1.215192214E1,-4.217051397E0,1.316756910E1
2.639602375E0,8.134762191E0,-1.391214572E1,-3.165942755E0,1.642392608E1
2.649556375E0,2.289163439E0,-1.418540832E1,-3.566679341E0,1.480497484E1
2.659510375E0,-3.825981428E0,-1.351881638E1,1.271114282E1,1.894649525E1
2.669464375E0,-8.105957052E0,-1.058683768E1,6.174762640E0,1.469405885E1
2.679419375E0,-8.633575294E0,-1.124846768E1,-6.014636055E0,1.540267815E1
2.689373375E0,-8.687998254E0,-1.379579782E1,-1.555382460E0,1.637756287E1
2.699327375E0,-6.177368744E0,-1.728610258E1,-5.503787627E0,1.916405243E1
2.709281375E0,-3.582866773E0,-1.903101698E1,-7.458207180E0,2.075190102E1
2.719235375E0,-3.578137837E-1,-1.410678432E1,-1.485797085E0,1.418932654E1
2.729189375E0,1.972359103E0,-3.427172962E0,-4.070600865E0,5.674989545E0
2.739143375E0,4.667103400E0,4.353002377E0,-5.857799113E0,8.662810992E0
2.749098375E0,5.293763827E0,3.222820961E0,-5.334351690E0,8.177152215E0
2.759052375E0,3.358048348E0,-6.272693562E0,-6.368873827E0,9.549121795E0
2.769006375E0,1.843915655E0,-1.129632012E1,-5.400705893E0,1.265600637E1
2.778960375E0,-4.964815262E-1,-1.150194681E1,-2.138803897E0,1.170964374E1
2.788914375E0,-2.226019358E0,-9.187922913E0,-3.458257637E0,1.006641125E1
2.798868375E0,-2.434818751E0,-7.172446150E0,-3.301831462E0,8.262833480E0
2.808822375E0,-1.297519227E0,-5.988553964E0,-1.966206370E0,6.435239096E0
2.818777375E0,-1.307884732E-1,-5.600639153E0,-1.532961896E0,5.808118174E0
2.828731375E0,-3.495415816E-1,-6.207058566E0,-1.555673944E0,6.408578374E0
2.838685375E0,-1.246193391E0,-7.375306526E0,-8.774173933E-1,7.531135744E0
2.848639375E0,-1.292005156E0,-8.505986125E0,-6.184477204E-1,8.625749525E0
2.858593375E0,-1.147878307E0,-9.482423776E0,-1.412485573E-1,9.552692628E0
2.868547375E0,-1.101103651E0,-9.884643216E0,-6.680154446E-1,9.968191681E0
2.878502375E0,-1.329251627E0,-9.749700589E0,-1.406953522E0,9.939974329E0
2.888456375E0,-2.117345346E0,-8.719125322E0,-1.889910000E0,9.169408787E0
2.898410375E0,-3.312522219E0,-6.984490326E0,-2.618373814E0,8.161604621E0
2.908364375E0,-4.404180717E0,-4.815221266E0,-3.475712453E0,7.393493132E0
2.918318375E0,-4.736363377E0,-2.021056761E0,-3.731811143E0,6.359577256E0
2.928272375E0,-3.862130670E0,1.169336126E0,-3.711361091E0,5.482481321E0
2.938226375E0,-2.229448603E0,4.823032562E0,-3.642017791E0,6.441768217E0
2.948181375E0,-1.006096191E0,8.223377329E0,-2.885803238E0,8.772914257E0
2.958135375E0,-3.250410536E-1,1.066000272E1,-1.953471719E0,1.084238726E1
2.968089375E0,4.862707162E-1,1.263815671E1,-1.507381790E0,1.273701943E1
2.978043375E0,1.067065547E0,1.444162396E1,-1.075622216E0,1.452088477E1
2.987997375E0,5.689488837E-1,1.406068838E1,-5.262331096E-1,1.408203046E1
2.997951375E0,-1.052226191E-1,1.079018981E1,-6.577953887E-1,1.081073368E1
3.007905375E0,-1.856031525E0,7.560746292E0,-1.035067098E0,7.853731687E0
3.017860375E0,-2.819121298E0,6.148179443E0,-1.617227583E0,6.954349748E0
3.027814375E0,-3.543439583E0,5.069269922E0,-2.192597111E0,6.562083794E0
3.037768375E0,-4.662372710E0,4.684800875E0,-3.234165144E0,7.358322003E0
3.047722375E0,-5.012737872E0,5.624682319E0,-3.443425298E0,8.283825804E0
3.057676375E0,-4.170209937E0,7.470599769E0,-1.940197370E0,8.772962878E0
3.067630375E0,-2.991806826E0,9.162203935E0,-2.088086756E-1,9.640564822E0
3.077585375E0,-1.757490738E0,1.031025035E1,1.001241029E0,1.050678445E1
3.087539375E0,-7.154836529E-1,1.105226435E1,2.167398243E0,1.128548091E1
3.097493375E0,2.464413921E-1,1.148760008E1,3.687283427E0,1.206738365E1
3.107447375E0,1.140273784E0,1.133760146E1,4.142328951E0,1.212436886E1
3.117401375E0,1.523906898E0,1.076651093E1,3.348720285E0,1.137778438E1
3.127355375E0,1.805332218E0,1.006294704E1,2.372917056E0,1.049537341E1
3.137309375E0,1.814581490E0,9.498973151E0,1.591863531E0,9.800878859E0
3.147264375E0,1.518929310E0,8.976908010E0,7.434196758E-1,9.134806866E0
3.157218375E0,1.037949556E0,8.559983407E0,2.212235570E-1,8.625519989E0
3.167172375E0,6.064780314E-1,8.194875076E0,-7.831285559E-2,8.217659400E0
3.177126375E0,2.659510291E-1,8.007271839E0,-1.347607791E-1,8.012820523E0
3.187080375E0,1.466053743E-1,7.747629152E0,2.050748630E-1,7.751729247E0
3.197034375E0,1.920742368E-1,7.362074862E0,6.182787359E-1,7.390487628E0
3.206988375E0,1.973835086E-1,7.049561650E0,9.582649438E-1,7.117130841E0
3.216943375E0,-1.805378996E-2,6.686347232E0,1.239538236E0,6.800295603E0
3.226897375E0,-1.604684282E-1,6.058908248E0,1.816924031E0,6.327506002E0
3.236851375E0,8.612437025E-2,4.429734803E0,1.852302024E0,4.802186026E0
3.246805375E0,6.407364294E-2,2.597054281E0,-2.373823667E0,3.519067372E0
3.256759375E0,9.115263218E-1,-1.463920020E0,1.504789719E0,2.288740737E0
3.266713375E0,-1.491656142E0,-8.595080734E0,1.950259259E0,8.938901613E0
3.276667375E0,-1.205713555E0,-1.284100247E1,-8.277503250E0,1.532521287E1
3.286622375E0,2.608268071E0,-1.477762134E1,-5.444338986E0,1.596314448E1
3.296576375E0,6.391712467E0,-9.509701037E0,8.514307297E0,1.427521737E1
3.306530375E0,4.569280067E0,-1.537486179E0,1.369513215E1,1.451891280E1
3.316484375E0,-8.923890428E-1,8.255099058E-2,2.056392655E0,2.243194958E0
3.326438375E0,-3.374332843E0,-4.210970001E0,1.707482865E0,5.659848781E0
3.336392375E0,-5.615226787E0,-1.008622013E1,-8.173235115E-1,1.157284002E1
3.346346375E0,-1.151946273E1,-2.217744115E1,-1.613379881E1,2.974619945E1
3.356301375E0,-1.301467062E1,-3.800428687E1,-2.235128121E1,4.597050406E1
3.366255375E0,-8.160177698E0,-3.770708693E1,-1.161011212E1,4.028905072E1
3.376209375E0,3.982574249E0,-1.355270801E1,1.590369567E-1,1.412664450E1
3.386163375E0,1.232177907E1,2.665024070E0,5.496434754E0,1.375279564E1
3.396117375E0,1.227570652E1,8.935423184E0,-4.380704731E-1,1.518968939E1
3.406071375E0,9.021657920E0,6.876134988E0,-4.630981348E0,1.225224601E1
3.416026375E0,1.022768299E1,-2.385384489E0,-3.821741320E0,1.117592346E1
3.425980375E0,8.523127238E0,-1.016455411E1,-1.957974952E0,1.340878533E1
3.435934375E0,2.674329913E0,-1.912370822E1,-3.318148702E-2,1.930982541E1
3.445888375E0,-2.476992525E0,-2.429745911E1,-5.986853009E-1,2.443072728E1
3.455842375E0,-5.748956702E0,-2.081083926E1,5.881831169E-1,2.159832154E1
3.465796375E0,-7.124329997E0,-1.399405000E1,1.770641565E0,1.580267968E1
3.475750375E0,-5.787977511E0,-9.229492523E0,9.625443748E-1,1.093666803E1
3.485704833E0,-2.956953035E0,-7.504657461E0,-5.741708493E-1,8.086601698E0
3.495658833E0,-8.205486895E-1,-7.203736939E0,-1.340182997E0,7.373141563E0
3.505612833E0,3.970342020E-1,-6.004012249E0,-2.059054892E0,6.359678159E0
3.515566833E0,1.267785696E0,-3.957924727E0,-3.054079088E0,5.157504027E0
3.525520833E0,1.579267897E0,-1.373682865E0,-3.340828882E0,3.942363419E0
3.535474833E0,6.858047211E-1,1.148672651E0,-2.984565049E0,3.270688843E0
3.545428833E0,-6.012663350E-1,3.883888451E0,-3.220145860E0,5.080890677E0
3.555383833E0,-1.997419684E0,7.476419502E0,-3.560704072E0,8.518517914E0
3.565337833E0,-2.722908289E0,1.055612343E1,-3.450347232E0,1.143463455E1
3.575291833E0,-2.820887742E0,1.306963562E1,-3.053918874E0,1.371492629E1
3.585245833E0,-2.235417587E0,1.478815452E1,-2.812473307E0,1.521829859E1
3.595199833E0,-2.149801632E0,1.370509230E1,-2.747127163E0,1.414206172E1
3.605153833E0,-2.608554877E0,9.275552795E0,-3.040469109E0,1.010370678E1
3.615107833E0,-3.288714988E0,5.573995146E0,-3.482483529E0,7.349337364E0
3.625062833E0,-3.420182031E0,3.856459163E0,-3.707077421E0,6.349200375E0
3.635016833E0,-3.612833461E0,3.594731358E0,-3.609492069E0,6.245245564E0
3.644970833E0,-4.275456603E0,4.047031031E0,-3.444634502E0,6.820813454E0
3.654924833E0,-4.502113393E0,5.374136145E0,-2.982653010E0,7.618830835E0
3.664878833E0,-3.898174953E0,7.246165506E0,-1.492571962E0,8.362443038E0
3.674832833E0,-3.192325977E0,9.202616966E0,2.368948258E-2,9.740619352E0
3.684786833E0,-2.080358638E0,1.077179096E1,1.653521397E0,1.109475126E1
3.694741833E0,-4.463350373E-1,1.197966316E1,3.062853420E0,1.237306007E1
3.704695833E0,9.685957313E-1,1.241994213E1,4.521988664E0,1.325298161E1
3.714649833E0,1.743506537E0,1.206955826E1,4.578818922E0,1.302611355E1
3.724603833E0,1.776920451E0,1.128597522E1,2.944703411E0,1.179838808E1
3.734557833E0,1.594350790E0,1.032731486E1,1.748436763E0,1.059492415E1
3.744511833E0,1.888007023E0,9.369118770E0,1.847640624E0,9.734409737E0
3.754465833E0,2.248320346E0,8.963350655E0,2.103417717E0,9.477392333E0
3.764420833E0,1.950019377E0,8.680215025E0,2.057572038E0,9.131391523E0
3.774374833E0,1.265416112E0,8.290278246E0,2.015743250E0,8.625149981E0
3.784328833E0,5.039816035E-1,8.114441362E0,2.011504019E0,8.375219668E0
3.794282833E0,1.715565581E-1,8.104073664E0,1.959850008E0,8.339451640E0
3.804236833E0,4.189331941E-1,8.127941998E0,2.087393861E0,8.402152062E0
3.814190833E0,1.039802466E0,8.082498023E0,2.325527420E0,8.474434567E0
3.824144833E0,1.668666124E0,7.776330795E0,2.131499555E0,8.234018315E0
3.834099833E0,2.213380309E0,6.899912106E0,1.156356770E0,7.337915265E0
3.844053833E0,2.439296695E0,5.619463094E0,-1.103670725E-1,6.127047799E0
3.854007833E0,2.911232779E0,4.311946737E0,-3.812669072E0,6.450163286E0
3.863961833E0,2.718766998E0,1.456306361E0,-9.060499220E0,9.571058892E0
3.873915833E0,-7.059517412E-1,-2.289584877E0,-2.334822738E0,3.345439282E0
3.883869833E0,-7.030172868E0,-7.084925610E0,2.707600863E0,1.034169251E1
3.893823833E0,-5.695597935E0,-1.017787874E1,-6.339706746E0,1.327482328E1
3.903778833E0,-2.928249785E-1,-9.949671271E0,2.365317430E0,1.023115005E1
3.913732833E0,-1.423439162E0,-8.423920453E0,1.009674395E1,1.322621840E1
3.923686833E0,-2.186335036E0,-6.530466895E0,3.644493502E0,7.791623171E0
3.933640833E0,-1.256611229E0,-6.616554866E0,-8.275680088E0,1.066980557E1
3.943594833E0,6.544241765E-1,-8.319196821E0,-5.863818237E0,1.019910148E1
3.953548833E0,-1.500709093E-1,-1.194770462E1,-2.627451031E0,1.223411893E1
3.963502833E0,-3.075360322E0,-1.682338083E1,-3.650339549E0,1.748739439E1
3.973457833E0,-5.006540408E0,-1.754192412E1,-2.263782869E0,1.838230838E1
3.983411833E0,-3.016780869E0,-9.975031815E0,-3.955322131E0,1.114660485E1
3.993365833E0,3.349185138E0,-1.003234271E0,-2.876830101E0,4.527656295E0
4.003319833E0,6.217472457E0,4.619681019E0,-3.094810792E0,8.341239136E0
4.013273833E0,5.037965684E0,6.844895069E0,-2.700072865E0,8.917627499E0
4.023227833E0,3.007965606E0,2.040388826E0,-3.680620524E0,5.172814620E0
4.033181833E0,1.006083912E0,-4.764389666E0,-6.584820857E0,8.189717910E0
4.043136833E0,-2.553492524E0,-8.888871161E0,-7.369427735E0,1.182543106E1
4.053090833E0,-5.807052298E0,-1.194801335E1,-5.787443075E0,1.449038912E1
4.063044833E0,-6.970198562E0,-1.094796640E1,-4.603973644E0,1.377091898E1
4.072998833E0,-5.564441965E0,-6.530269843E0,-2.816201491E0,9.029863202E0
4.082952833E0,-3.193431686E0,-3.435321642E0,-1.420774586E0,4.900820455E0
4.092906833E0,-1.565008293E0,-2.200349350E0,-7.551275557E-1,2.803748534E0
4.102860833E0,3.456040666E-2,-2.030237474E0,-8.857011437E-1,2.215293466E0
4.112815833E0,1.704867259E0,-2.660966687E0,-1.866166942E0,3.670135574E0
4.122769833E0,2.615402259E0,-3.910419608E0,-1.362377273E0,4.897732365E0
4.132723833E0,2.732890947E0,-5.389306161E0,-1.933653751E-1,6.045717823E0
4.142677833E0,2.573208750E0,-6.993520766E0,-1.313512092E0,7.566772759E0
4.152631833E0,2.156077157E0,-9.207109382E0,-1.033412921E0,9.512490428E0
4.162585833E0,1.928330154E0,-1.079653170E1,-1.117005301E-1,1.096795473E1
4.172539833E0,1.484463336E0,-1.077542910E1,-9.095297170E-1,1.091516138E1
4.182494833E0,1.405137231E0,-9.766155238E0,3.487457755E-1,9.872883185E0
4.192448833E0,1.783511871E0,-8.563951328E0,1.567256109E0,8.886983102E0
4.202402833E0,1.726702517E0,-7.275560628E0,1.239456229E0,7.579679134E0
4.212356833E0,6.262525839E-1,-5.902292916E0,8.804504903E-1,6.000370574E0
4.222310833E0,-9.157691346E-1,-5.134517248E0,8.080252692E-2,5.216170005E0
4.232264833E0,-2.573213428E0,-4.936296052E0,-9.834619117E-1,5.652932283E0
4.242218833E0,-4.170559893E0,-5.281265988E0,-2.487299119E0,7.174398732E0
4.252173833E0,-5.282287497E0,-5.796082921E0,-3.135032619E0,8.445446581E0
4.262127833E0,-5.781889390E0,-4.911016200E0,-3.032039763E0,8.169552629E0
4.272081833E0,-5.154541038E0,-7.229468197E-1,-2.830083951E0,5.924636747E0
4.282035833E0,-3.394558947E0,4.474028047E0,-2.509741902E0,6.151321957E0
4.291989833E0,-1.654737471E0,8.681635314E0,-2.823039810E0,9.277850052E0
4.301943833E0,6.247660755E-1,1.220926695E1,-4.338522332E0,1.297225147E1
4.311897833E0,3.043523402E0,1.346233813E1,-6.560739099E0,1.528204437E1
4.321852833E0,3.521646133E0,1.081433998E1,-8.549185939E0,1.422815943E1
4.331806833E0,3.248158116E0,7.545937049E0,-8.969669741E0,1.216333311E1
4.341760833E0,1.789901416E0,5.192457308E0,-7.347194867E0,9.173147354E0
4.351714833E0,-1.540880488E0,4.519730469E0,-5.537765797E0,7.312258626E0
4.361668833E0,-5.514408510E0,4.571319283E0,-3.809676175E0,8.112909081E0
4.371622833E0,-8.841803414E0,5.207692228E0,-3.308893729E0,1.078175884E1
4.381576833E0,-8.868600034E0,6.609528267E0,-2.532551891E0,1.134688281E1
4.391530833E0,-6.465097362E0,8.958960566E0,-7.113206546E-1,1.107097265E1
4.401485833E0,-5.418001957E0,1.115855738E1,2.705485632E0,1.269597576E1
4.411439833E0,-4.150218015E0,1.199446363E1,5.154021220E0,1.369873725E1
4.421393833E0,-2.012896533E0,1.197475267E1,5.575966827E0,1.336180602E1
4.431347833E0,-1.974373030E-1,1.141710605E1,4.924106362E0,1.243527706E1
4.441301833E0,1.241833707E0,1.082426972E1,4.451047027E0,1.176940039E1
4.451255833E0,2.266839062E0,9.973736072E0,4.284613635E0,1.108926889E1
4.461210833E0,2.928809217E0,9.242130695E0,3.605919421E0,1.034396240E1
4.471164833E0,3.362089943E0,8.910242735E0,2.353048217E0,9.809837424E0
4.481118583E0,3.269606287E0,9.114511705E0,1.266351374E0,9.765669189E0
4.491072583E0,2.929192794E0,9.677347142E0,3.983650283E-1,1.011879009E1
4.501026583E0,2.792666156E0,1.023346004E1,-3.248256203E-1,1.061264341E1
4.510980583E0,2.484522569E0,1.024103335E1,-6.889398520E-1,1.056059916E1
4.520934583E0,1.679766186E0,9.458681157E0,-3.895589022E-1,9.614573304E0
4.530889583E0,1.188385039E0,8.433761317E0,6.712543635E-1,8.543487074E0
4.540843583E0,1.247727700E0,7.984714451E0,1.893048785E0,8.300368846E0
4.550797583E0,1.506820457E0,7.827804419E0,2.758825103E0,8.435410236E0
4.560751583E0,1.732433811E0,7.668764831E0,3.286716410E0,8.521372290E0
4.570705583E0,1.822742157E0,7.299149466E0,3.271669185E0,8.203888782E0
4.580659583E0,1.797692538E0,6.913805675E0,2.519746488E0,7.575059719E0
4.590613583E0,1.685016401E0,6.321990852E0,5.081896985E-1,6.562400885E0
4.600567583E0,1.357571447E0,4.732257462E0,-2.629181807E0,5.581205774E0
4.610522583E0,1.080723912E0,-5.583348352E-1,-5.095470711E0,5.238656672E0
4.620476583E0,-7.132416111E-1,-6.935263202E0,-3.083184189E0,7.623162993E0
4.630430583E0,-2.455452844E0,-1.184810549E1,-2.056226009E0,1.227334175E1
4.640384583E0,-6.483434815E0,-1.591399028E1,-1.915851201E1,2.573593978E1
4.650338583E0,-9.749815779E0,-1.777546542E1,-1.621422375E0,2.033851246E1
4.660292583E0,-8.721991042E0,-1.220130304E1,2.219253164E1,2.678532031E1
4.670246583E0,-1.610417477E0,-5.840776114E0,-2.095130458E0,6.410747359E0
4.680201583E0,6.556867658E0,-4.289854202E0,-1.829420934E1,1.990159436E1
4.690155583E0,6.878958024E0,-4.464261442E0,-5.453917894E0,9.848599602E0
4.700109583E0,-3.412965690E0,-1.118459269E1,4.169196323E-1,1.170116535E1
4.710063583E0,-1.440655587E1,-1.607681536E1,-5.210053918E0,2.220714988E1
4.720017583E0,-9.963768908E0,-1.375511640E1,-5.198420883E0,1.776241813E1
4.729971583E0,-5.192271951E0,-1.371146811E1,-2.220227252E0,1.482880490E1
4.739925583E0,-3.325495144E0,-1.373343259E1,1.496302485E-3,1.413032522E1
4.749880583E0,-2.448928667E0,-1.328143346E1,-3.496138532E0,1.395050935E1
4.759834583E0,5.672999324E-1,-1.275947825E1,-6.627311404E0,1.438914072E1
4.769788583E0,4.652560205E0,-1.038925091E1,-5.545077156E0,1.266217721E1
4.779742583E0,7.871205377E0,-7.464933817E0,-6.118276198E0,1.245449375E1
4.789696583E0,9.803328912E0,-5.655957906E0,-6.224003212E0,1.291639786E1
4.799650583E0,9.561353002E0,-5.015159204E0,-4.848564136E0,1.183553409E1
4.809604583E0,6.024925400E0,-6.156176096E0,-3.345785860E0,9.240806957E0
4.819558583E0,1.302688604E0,-8.606644773E0,-2.367961541E0,9.021007355E0
4.829513583E0,-1.984258187E0,-1.119383948E1,-2.504087060E0,1.164086658E1
4.839467583E0,-3.983722350E0,-1.352885956E1,-2.507144569E0,1.432431006E1
4.849421583E0,-4.922426457E0,-1.416684926E1,-1.734537786E0,1.509763298E1
4.859375583E0,-4.508475456E0,-1.210531515E1,-8.917006794E-1,1.294836422E1
4.869329583E0,-2.883323434E0,-8.909922892E0,-3.733891582E-1,9.372283576E0
4.879283583E0,-1.579744299E0,-5.725178999E0,-5.404100494E-1,5.963665789E0
4.889237583E0,-1.098398803E0,-2.620445482E0,-4.484743508E-1,2.876515896E0
4.899192583E0,-1.077401743E0,6.225238144E-2,-2.136454193E-1,1.100142828E0
4.909146583E0,-1.284947859E0,1.819274027E0,-9.909517564E-2,2.229499683E0
4.919100583E0,-1.089006785E0,3.525129611E0,-3.602492952E-1,3.707054641E0
4.929054583E0,-3.897735681E-1,5.572255014E0,-8.343450487E-1,5.647838616E0
4.939008583E0,3.338010232E-1,7.420988483E0,-1.198762239E0,7.524594613E0
4.948962583E0,5.839153073E-1,8.896780690E0,-1.409346203E0,9.026622871E0
4.958916583E0,7.280303159E-1,1.005240568E1,-1.515839202E0,1.019208794E1
4.968871583E0,7.298037764E-1,1.032385097E1,-2.376980871E0,1.061906543E1
4.978825583E0,8.433553156E-1,1.003069029E1,-3.993062984E0,1.082915269E1
4.988779583E0,4.887969327E-1,9.311237183E0,-5.806926582E0,1.098446433E1
4.998733583E0,-4.671308425E-1,7.794674680E0,-6.227779344E0,9.988012823E0
5.008687583E0,-1.140158667E0,6.828358558E0,-4.187205162E0,8.090681643E0
5.018641583E0,-1.645836255E0,6.470727062E0,-2.279139996E0,7.055038257E0
5.028595583E0,-2.758494735E0,6.675622269E0,-1.693044920E0,7.418869657E0
5.038549583E0,-3.806048270E0,7.480654056E0,-1.678192992E0,8.559352794E0
5.048504583E0,-3.640241992E0,8.684777607E0,-1.537829411E0,9.541574458E0
5.058458583E0,-3.044364232E0,9.735312345E0,-6.217274237E-1,1.021914894E1
5.068412583E0,-2.334389898E0,1.035880329E1,9.699384713E-1,1.066278399E1
5.078366583E0,-1.252837728E0,1.053414842E1,1.523507241E0,1.071722724E1
5.088320583E0,-2.028724727E-1,1.033903034E1,1.656522042E0,1.047285878E1
5.098274583E0,5.610333983E-1,9.966660941E0,1.603168538E0,1.011035302E1
5.108228583E0,6.929516997E-1,9.751509132E0,1.100879849E0,9.837888435E0
5.118183583E0,4.947427104E-1,9.545132825E0,3.934872079E-1,9.566042190E0
5.128137583E0,1.560149695E-1,9.297318470E0,-2.007676578E-1,9.300794539E0
5.138091583E0,-3.338672429E-1,8.997246965E0,-2.611378205E-1,9.007225613E0
5.148045583E0,-6.345326798E-1,8.659317661E0,1.529280782E-2,8.682548471E0
5.157999583E0,-7.893877809E-1,8.436815318E0,2.630732489E-1,8.477746948E0
5.167953583E0,-9.146310472E-1,8.336768289E0,4.199096791E-1,8.397295969E0
5.177907583E0,-9.478224745E-1,8.332263009E0,6.574576389E-1,8.411731382E0
5.187862583E0,-9.105273981E-1,8.421205591E0,1.086652550E0,8.539705938E0
5.197816583E0,-7.083618904E-1,8.594141087E0,1.615071276E0,8.773225907E0
5.207770583E0,-4.066586459E-1,8.689361824E0,2.160207045E0,8.963083992E0
5.217724583E0,2.466311891E-1,8.243992272E0,2.660138136E0,8.666058529E0
5.227678583E0,1.422433002E0,7.481023600E0,3.534821956E0,8.395474734E0
5.237632583E0,2.654348516E0,6.908888751E0,2.804090154E0,7.914621369E0
5.247586583E0,4.768425415E0,4.673997560E0,-5.564036168E0,8.691526483E0
5.257541583E0,4.020009001E0,-6.761071140E-1,-1.280312479E0,4.272796887E0
5.267495583E0,1.753902740E0,-6.342043294E0,4.917538769E0,8.214613534E0
5.277449583E0,1.924171175E0,-1.006778737E1,7.126919144E0,1.248422019E1
5.287403583E0,3.238792338E0,-8.938029873E0,2.140035613E0,9.744634741E0
5.297357583E0,-5.297603328E-1,-5.610988725E0,8.567201210E0,1.025479288E1
5.307311583E0,-2.740661020E0,-1.233108199E0,1.941518841E1,1.964640729E1
5.317265583E0,-2.129014635E0,-1.212113187E0,2.373619599E0,3.411156943E0
5.327219583E0,-4.031136544E0,-1.314526818E1,-3.925498291E1,4.159329057E1
5.337174583E0,-1.007702246E1,-4.012597479E1,-4.328258715E1,5.987505812E1
5.347128583E0,-1.874493377E1,-4.798212067E1,-5.933474947E0,5.185424352E1
5.357082583E0,-5.861551563E-1,-1.685960901E1,2.899459761E1,3.354514398E1
5.367036583E0,9.908401623E0,3.340081608E0,1.222379728E1,1.608582568E1
5.376990583E0,1.034476412E1,1.065228908E1,-5.151160762E0,1.571686561E1
5.386944583E0,6.456454008E0,1.163653919E1,5.921999786E0,1.456588220E1
5.396898583E0,-1.912620293E0,9.431399803E0,9.699589950E0,1.366350847E1
5.406853583E0,-1.853316809E0,1.933522773E0,-5.240327877E0,5.885093863E0
5.416807583E0,2.416226652E0,-4.461394553E0,-1.686344946E1,1.761017094E1
5.426761583E0,1.499669020E0,-9.844472845E0,-7.372703345E0,1.239029489E1
5.436715583E0,-1.530105239E0,-1.088493108E1,-6.136892563E-1,1.100906722E1
5.446669583E0,-2.022373554E0,-6.657184829E0,-2.983094475E0,7.570135882E0
5.456623583E0,-4.072054775E0,-2.674605902E0,-4.007910819E0,6.308604913E0
5.466577583E0,-4.974995264E0,3.617972286E0,1.565591991E0,6.347549104E0
5.476532583E0,-2.321347391E0,6.984734740E0,4.748864724E0,8.759388635E0
5.486486708E0,1.424545455E0,3.523867782E0,-7.446312189E-1,3.873170478E0
5.496440708E0,2.188024589E0,-9.736549616E-1,-4.752006433E0,5.321373951E0
5.506394708E0,6.000341805E-1,-5.437387816E0,-4.294197514E0,6.954520801E0
5.516348708E0,-3.279732496E-1,-8.142382867E0,-3.943469825E0,9.053006101E0
5.526302708E0,-5.682041312E-1,-6.989453443E0,-3.062985567E0,7.652267373E0
5.536256708E0,2.217696504E-1,-4.077201494E0,-9.219147044E-1,4.186010096E0
5.546210708E0,1.113375934E0,-2.128237978E0,1.078862743E0,2.633049122E0
5.556165708E0,1.488975924E0,-1.154525714E0,1.592103267E0,2.466733009E0
5.566119708E0,1.514932299E0,-1.295710244E0,4.189623570E-1,2.037011135E0
5.576073708E0,2.098711001E0,-2.366350048E0,-1.410102248E0,3.463031730E0
5.586027708E0,2.630151860E0,-4.478349724E0,-3.948731734E0,6.524246881E0
5.595981708E0,2.540730976E0,-7.071391645E0,-5.849392571E0,9.522357226E0
5.605935708E0,2.602875476E0,-8.799522198E0,-5.801943001E0,1.085675339E1
5.615889708E0,2.357276047E0,-9.468129088E0,-4.296578500E0,1.066127598E1
5.625843708E0,1.417063358E0,-9.301429063E0,-2.824757137E0,9.823640062E0
5.635798708E0,-4.185992815E-1,-9.207444427E0,-2.060849110E0,9.444541137E0
5.645752708E0,-2.179927365E0,-9.193482445E0,-1.485809072E0,9.564508947E0
5.655706708E0,-3.125174506E0,-9.008490576E0,-1.230449763E0,9.614240727E0
5.665660708E0,-3.149886886E0,-9.579464752E0,-1.941578482E0,1.026925797E1
5.675614708E0,-2.959939793E0,-1.027104360E1,-2.605542099E0,1.100201935E1
5.685568708E0,-2.380524576E0,-1.020148512E1,-2.606576764E0,1.079497283E1
5.695522708E0,-1.551463364E0,-8.649252849E0,-2.123533162E0,9.040243719E0
5.705477708E0,-1.598375283E0,-4.943005148E0,-2.190932994E0,5.638110572E0
5.715431708E0,-1.961774181E0,1.170039546E-1,-2.304671717E0,3.028821484E0
5.725385708E0,-2.018288689E0,4.223942633E0,-2.052683766E0,5.111623152E0
5.735339708E0,-2.168125637E0,6.772353927E0,-1.485507356E0,7.264453083E0
5.745293708E0,-1.926587099E0,8.732806052E0,-7.827890519E-1,8.976992709E0
5.755247708E0,-1.436837764E0,1.002968457E1,-4.306720642E-1,1.014123039E1
5.765201708E0,-1.064668554E0,1.118357294E1,1.401226759E-1,1.123501033E1
5.775155708E0,-8.458639173E-1,1.217063790E1,2.089408227E-1,1.220178548E1
5.785110708E0,-7.815386248E-1,1.193739013E1,-7.241297114E-1,1.198484249E1
5.795064708E0,-2.443135538E-1,1.017550828E1,-2.129884554E0,1.039889735E1
5.805018708E0,-2.014327054E-1,8.042017749E0,-3.006128411E0,8.587865429E0
5.814972708E0,-6.443856767E-1,6.726328738E0,-3.055704614E0,7.415932975E0
5.824926708E0,-1.245543765E0,6.283738368E0,-2.564473010E0,6.900236877E0
5.834880708E0,-2.582033953E0,6.417443724E0,-2.464017845E0,7.343151042E0
5.844834708E0,-3.779853913E0,7.120309451E0,-2.341857816E0,8.394664991E0
5.854789708E0,-3.782073809E0,8.484398205E0,-1.761581158E0,9.454748192E0
5.864743708E0,-3.010591006E0,9.946233108E0,-2.553817483E-1,1.039501953E1
5.874697708E0,-2.085860868E0,1.071981974E1,1.831744384E0,1.107342035E1
5.884651708E0,-1.008552241E0,1.069181976E1,3.216543975E0,1.121063524E1
5.894605708E0,6.381782725E-2,1.027439288E1,3.261224889E0,1.077974070E1
5.904559708E0,7.110293171E-1,9.953284850E0,2.397104648E0,1.026253150E1
5.914513708E0,8.935687186E-1,9.542469419E0,1.695217745E0,9.732982629E0
5.924468708E0,7.611240216E-1,8.986762322E0,1.124789187E0,9.088803966E0
5.934422708E0,4.204284733E-1,8.594814101E0,5.179814458E-1,8.620666698E0
5.944376708E0,-1.099509335E-1,8.502754369E0,6.423641481E-2,8.503707861E0
5.954330708E0,-4.470646236E-1,8.481741815E0,-8.449212000E-2,8.493936067E0
5.964284708E0,-4.312477957E-1,8.351250672E0,-9.240121007E-2,8.362888283E0
5.974238708E0,-1.467425097E-1,8.112616446E0,-8.640796021E-2,8.114403570E0
5.984192708E0,7.370207937E-2,7.679114987E0,1.617665832E-1,7.681172268E0
5.994146708E0,9.494862266E-2,7.250092496E0,7.693088078E-1,7.291412242E0
6.004101708E0,-4.979878969E-2,7.208065048E0,1.674416714E0,7.400158984E0
6.014055708E0,-2.295261647E-1,7.350876859E0,2.706887795E0,7.836792353E0
6.024009708E0,-4.128211726E-1,7.511254874E0,3.619020692E0,8.347854927E0
6.033963708E0,-5.488924224E-1,7.610313724E0,3.844789582E0,8.544036798E0
6.043917708E0,-9.072465254E-1,7.427673604E0,2.780496054E0,7.982768300E0
6.053871708E0,-1.362739362E0,7.023999377E0,1.290651818E0,7.270447575E0
6.063825708E0,-8.094075510E-1,6.034178619E0,7.897103280E-1,6.139225895E0
6.073779708E0,3.755647976E-1,4.542698917E0,-2.276612830E0,5.095108276E0
6.083734708E0,1.091816299E0,5.298781908E-1,2.254077368E0,2.560019240E0
6.093688708E0,-2.141710986E0,-7.009114705E0,-4.949468660E0,8.843746656E0
6.103642708E0,-1.603993434E0,-1.650669446E1,-3.235724012E0,1.689714967E1
6.113596708E0,8.135179682E0,-1.979161344E1,9.757862717E-1,2.142058052E1
6.123550708E0,8.834869201E0,-1.308742752E1,4.227574924E0,1.634650001E1
6.133504708E0,7.929670809E-1,-8.155007005E0,4.224973497E0,9.218640740E0
6.143458708E0,-6.531746850E0,-1.151792608E1,-6.823517064E0,1.489586262E1
6.153412708E0,-1.232112769E1,-2.033450636E1,-2.308063716E1,3.313635690E1
6.163367708E0,-1.125112465E1,-2.697680535E1,-2.638673943E1,3.937760595E1
6.173321708E0,-3.622801502E0,-1.944039692E1,-2.314750709E0,1.991009277E1
6.183275708E0,5.549269025E0,-1.696101844E0,1.124377938E1,1.265281482E1
6.193229708E0,9.273966445E0,6.910203790E0,1.996085642E0,1.173634219E1
6.203183708E0,7.480011447E0,7.331272314E0,-7.601552256E0,1.294147293E1
6.213137708E0,5.532316777E0,3.122096239E0,-1.707454798E0,6.577949205E0
6.223091708E0,4.453675351E0,-1.783429425E0,2.345226397E0,5.340031039E0
6.233046708E0,1.503284061E0,-7.516884574E0,-4.867354456E0,9.080449111E0
6.243000708E0,-1.880422746E0,-1.348632691E1,-5.215552640E0,1.458146058E1
6.252954708E0,-2.406054981E0,-1.654827986E1,-5.462847762E0,1.759196898E1
6.262908708E0,-4.896869885E-1,-1.654130063E1,-4.858809628E0,1.724709978E1
6.272862708E0,1.841895150E0,-1.352420869E1,-3.080572530E0,1.399238098E1
6.282816708E0,2.924686638E0,-1.017055569E1,-1.955385513E0,1.076185521E1
6.292770708E0,2.491475493E0,-7.628209713E0,-1.966245254E0,8.262151896E0
6.302724708E0,1.483234251E0,-6.836563371E0,-2.479742762E0,7.422109319E0
6.312679708E0,1.439276053E0,-7.497965323E0,-2.741592189E0,8.112171551E0
6.322633708E0,1.917609137E0,-8.848420123E0,-2.279436158E0,9.336358641E0
6.332587708E0,1.587672393E0,-1.011950014E1,-2.198782004E0,1.047662298E1
6.342541708E0,6.292203382E-1,-1.089205065E1,-2.486436655E0,1.118995321E1
6.352495708E0,-3.548353583E-1,-1.143011260E1,-2.668098536E0,1.174274806E1
6.362449708E0,-1.428185201E0,-1.163199006E1,-2.948240099E0,1.208449525E1
6.372403708E0,-2.051194480E0,-1.011143800E1,-3.232581718E0,1.081194533E1
6.382357708E0,-2.696941389E0,-6.603045459E0,-3.560626888E0,7.971936153E0
6.392312708E0,-3.564834837E0,-2.066384962E0,-3.578975451E0,5.457752239E0
6.402266708E0,-3.917295349E0,2.107067549E0,-2.780609490E0,5.245638726E0
6.412220708E0,-3.295307139E0,5.973255894E0,-1.799927344E0,7.055393225E0
6.422174708E0,-2.243860090E0,9.885597482E0,-7.274064180E-1,1.016312284E1
6.432128708E0,-9.150051228E-1,1.282363974E1,4.031270007E-1,1.286256126E1
6.442082708E0,-3.094630844E-1,1.424120479E1,9.583188844E-1,1.427676632E1
6.452036708E0,-2.024199713E-1,1.380144272E1,-1.327657457E-1,1.380356555E1
6.461990708E0,1.162160423E-1,1.119077203E1,-2.554151505E0,1.147913650E1
6.471945708E0,-1.333732714E-1,8.363785933E0,-5.130279186E0,9.812770663E0
6.481899458E0,-6.341822854E-1,6.139613857E0,-5.371136523E0,8.182062884E0
6.491853458E0,-1.133693839E0,5.455717083E0,-3.945830930E0,6.827861476E0
6.501807458E0,-2.021011738E0,5.567815808E0,-3.483914927E0,6.871879258E0
6.511761458E0,-3.123051674E0,6.128970171E0,-2.957511152E0,7.487629754E0
6.521715458E0,-3.223973447E0,8.140589526E0,-7.401089092E-1,8.786976944E0
6.531669458E0,-2.527756881E0,1.059647506E1,1.935116140E0,1.106433519E1
6.541624458E0,-2.130412704E0,1.133281259E1,3.862331522E0,1.216095820E1
6.551578458E0,-1.706616600E0,1.123545528E1,4.327235452E0,1.216030272E1
6.561532458E0,-7.982934558E-1,1.076296517E1,4.401492752E0,1.165554933E1
6.571486458E0,9.405410830E-3,1.042943765E1,3.901965119E0,1.113546542E1
6.581440458E0,2.069843443E-1,1.011984513E1,2.692079136E0,1.047384352E1
6.591394458E0,1.553040760E-1,9.576638208E0,1.353411738E0,9.673047196E0
6.601348458E0,5.766719593E-2,9.070159990E0,5.628647462E-1,9.087790956E0
6.611302458E0,1.928762372E-1,8.844296082E0,1.555347669E-1,8.847766130E0
6.621257458E0,5.822899641E-1,8.874520340E0,-1.216793883E-1,8.894435268E0
6.631211458E0,1.043668060E0,9.007442170E0,-2.047296580E-1,9.070014978E0
6.641165458E0,1.250644876E0,9.117612484E0,-6.461524129E-2,9.203213848E0
6.651119458E0,9.804989813E-1,8.915812792E0,3.011304367E-1,8.974618406E0
6.661073458E0,4.536548377E-1,8.564714389E0,6.350755937E-1,8.600200945E0
6.671027458E0,-2.233249915E-1,8.307800013E0,9.747671020E-1,8.367770671E0
6.680981458E0,-8.804664239E-1,8.156527866E0,1.634787795E0,8.365207654E0
6.690935458E0,-1.254666299E0,7.936708810E0,2.432860664E0,8.395495535E0
6.700890458E0,-1.214634945E0,7.699099601E0,3.266166955E0,8.450995166E0
6.710844458E0,-7.490302985E-1,7.160837672E0,3.624622617E0,8.060802173E0
6.720798458E0,-4.035977016E-1,6.118849810E0,2.938520565E0,6.799861558E0
6.730752458E0,-4.009473414E-1,5.958479980E0,7.140178290E-1,6.014487834E0
6.740706458E0,1.737071457E-1,5.076829787E0,-6.106254323E0,7.942966493E0
6.750660458E0,-5.966794867E-2,2.202166080E0,-1.174177738E1,1.194664939E1
6.760614458E0,1.177095162E0,-1.493126863E0,1.512456588E1,1.524360436E1
6.770569458E0,2.381916652E0,-6.601421102E0,1.177324476E1,1.370626060E1
6.780523458E0,5.755444772E0,-1.313579101E1,-2.593191493E1,2.963339943E1
6.790477458E0,6.784969879E0,-1.894848704E1,-3.702702242E0,2.046438324E1
6.800431458E0,-2.303751804E0,-1.480764328E1,2.606273819E1,3.006393012E1
6.810385458E0,-8.138278706E0,-4.876427581E0,9.718851264E0,1.358187013E1
6.820339458E0,-1.086354781E0,-1.670195755E0,-5.773509160E0,6.107628721E0
6.830293458E0,-4.666573642E-1,3.128418249E-1,4.210749561E-1,7.020991537E-1
6.840247458E0,-4.016964063E0,-5.721216341E0,-7.104445955E0,9.967019065E0
6.850202458E0,-9.028501502E0,-1.834620746E1,-2.566202383E1,3.281214157E1
6.860156458E0,-7.230464562E0,-2.958020094E1,-1.462121300E1,3.377939867E1
6.870110458E0,2.761701348E0,-2.819539784E1,1.953240754E0,2.839758094E1
6.880064458E0,5.920647910E0,-9.647160307E0,-1.037737522E0,1.136655941E1
6.890018458E0,8.129787380E0,4.486759774E0,-7.914498746E-2,9.286049754E0
6.899972458E0,7.712078081E0,1.240060305E1,-8.295561790E-2,1.460335530E1
6.909926458E0,3.884394528E0,1.128408657E1,-1.209726938E0,1.199510608E1
6.919880458E0,1.749700054E0,2.190630693E0,-2.080527037E0,3.491261357E0
6.929834458E0,-4.979628817E-1,-3.046122782E0,-9.263580036E-1,3.222571983E0
6.939789458E0,-3.022595048E0,-5.119797467E0,-1.163798229E0,6.058286329E0
6.949743458E0,-4.240187075E0,-5.948564857E0,-3.106222803E0,7.938087326E0
6.959697458E0,-4.467943142E0,-5.739701729E0,-2.445876859E0,7.673917218E0
6.969651458E0,-3.122114950E0,-5.032534205E0,-1.099219825E0,6.023477942E0
6.979605458E0,-1.458057748E0,-3.774368933E0,-1.324686706E0,4.257533101E0
6.989559458E0,-8.758012960E-1,-2.653888632E0,-9.194787544E-1,2.942039082E0
6.999513458E0,-9.310371649E-1,-1.528275645E0,-1.017935926E-1,1.792433705E0
7.009468458E0,-1.298349294E-1,-1.834482050E0,-1.265537442E0,2.232435109E0
7.019422458E0,1.117804542E0,-2.995302876E0,-2.242582034E0,3.905188919E0
7.029376458E0,1.780499824E0,-4.099462429E0,-3.279652389E0,5.543635235E0
7.039330458E0,1.752546917E0,-5.205672015E0,-4.268534669E0,6.956351777E0
7.049284458E0,1.618583991E0,-5.721245577E0,-3.961199167E0,7.144477863E0
7.059238458E0,1.636945271E0,-5.400273199E0,-2.823780068E0,6.310013813E0
7.069192458E0,1.841861967E0,-4.652498517E0,-2.368263257E0,5.535961417E0
7.079146458E0,1.746145093E0,-3.995600091E0,-2.600115883E0,5.076853886E0
7.089101458E0,1.639349354E0,-3.711885002E0,-2.559868328E0,4.797758062E0
7.099055458E0,1.994432196E0,-4.001953091E0,-2.848266453E0,5.301510173E0
7.109009458E0,1.977903579E0,-4.947951307E0,-3.440024265E0,6.342561915E0
7.118963458E0,1.543799272E0,-7.066949515E0,-2.243869591E0,7.573641290E0
7.128917458E0,6.733050551E-1,-1.012554967E1,-8.772334984E-1,1.018575645E1
7.138871458E0,2.627384044E-1,-1.075772139E1,-3.812130252E-1,1.076767962E1
7.148825458E0,4.156639427E-3,-9.461863797E0,-7.628631297E-1,9.492567826E0
7.158779458E0,1.400276586E-1,-8.492881345E0,-1.128475783E0,8.568669610E0
7.168734458E0,-5.963794515E-4,-7.815063921E0,-1.287163661E0,7.920354457E0
7.178688458E0,2.353153467E-2,-7.224552442E0,-1.244082838E0,7.330924487E0
7.188642458E0,-3.039711237E-1,-6.465616595E0,-1.363049265E0,6.614718414E0
7.198596458E0,-7.592466268E-1,-4.109090454E0,-1.427888893E0,4.415874374E0
7.208550458E0,-1.302641095E0,-9.748302519E-2,-1.551359722E0,2.028076367E0
7.218504458E0,-1.623028313E0,3.774967688E0,-2.091338539E0,4.610672276E0
7.228458458E0,-1.515714949E0,7.644291894E0,-2.679676023E0,8.240949821E0
7.238412458E0,-1.230805566E0,1.121253654E1,-2.545112879E0,1.156345353E1
7.248367458E0,-3.366314410E-1,1.272326995E1,-2.171631335E0,1.291165758E1
7.258321458E0,6.975055113E-1,1.253407744E1,-2.398964063E0,1.278063534E1
7.268275458E0,5.632301972E-1,1.031846686E1,-4.111475533E0,1.112170030E1
7.278229458E0,-7.324945188E-1,7.151352319E0,-5.615994526E0,9.122378129E0
7.288183458E0,-9.808540535E-1,5.882812917E0,-5.510246462E0,8.119875526E0
7.298137458E0,-1.472209033E0,5.243423393E0,-4.508934170E0,7.070457953E0
7.308091458E0,-3.286527252E0,5.136265565E0,-3.156633403E0,6.866354184E0
7.318045458E0,-4.885145195E0,6.266280921E0,-2.068580006E0,8.210355863E0
7.328000458E0,-4.608791165E0,7.932147982E0,-5.966954935E-1,9.193256938E0
7.337954458E0,-3.450346939E0,9.606443220E0,1.050041744E0,1.026115164E1
7.347908458E0,-2.720503913E0,1.080305135E1,2.253311090E0,1.136593466E1
7.357862458E0,-2.157740982E0,1.121878370E1,2.393681688E0,1.167247471E1
7.367816458E0,-1.473150143E0,1.125828983E1,3.512056407E0,1.188502425E1
7.377770458E0,-8.766903652E-1,1.094327225E1,3.879441644E0,1.164361890E1
7.387724458E0,-4.840230831E-1,1.037946969E1,2.634101654E0,1.071942913E1
7.397678458E0,-5.825447199E-1,9.776945690E0,1.518709016E0,9.911332022E0
7.407633458E0,-5.786106402E-1,9.351519236E0,6.000564730E-1,9.388597875E0
7.417587458E0,-8.426725801E-2,9.234711163E0,7.870843434E-1,9.268575565E0
7.427541458E0,5.428762222E-1,9.222769979E0,1.614581279E0,9.378756495E0
7.437495458E0,9.780827656E-1,9.180081212E0,2.186452711E0,9.487418638E0
7.447449458E0,1.022128818E0,8.941483823E0,2.335243446E0,9.297754687E0
7.457403458E0,7.279558370E-1,8.544764274E0,2.134983472E0,8.837481012E0
7.467357458E0,2.989236609E-1,8.086737254E0,1.950424296E0,8.323991213E0
7.477311458E0,-2.486934107E-2,7.821708696E0,1.846684166E0,8.036789647E0
7.487266125E0,-2.421709513E-1,7.965874137E0,1.813157401E0,8.173208507E0
7.497221125E0,-3.766420009E-1,7.914291170E0,1.616743726E0,8.086514960E0
7.507175125E0,-3.421392989E-1,7.664051975E0,7.277611247E-1,7.706126668E0
7.517129125E0,-4.024111919E-1,7.738557197E0,-3.034938812E-1,7.754953952E0
7.527083125E0,5.042339840E-1,6.769054928E0,-2.059840465E0,7.093468776E0
7.537037125E0,1.341194127E0,2.739252718E0,-1.150767358E1,1.190499300E1
7.546991125E0,-1.313963790E0,-2.996600373E0,-9.537998053E0,1.008362641E1
7.556945125E0,-4.738399670E0,-1.104560788E1,2.106505047E0,1.220226407E1
7.566899125E0,-5.071798258E0,-1.948970065E1,-1.650201201E0,2.020630429E1
7.576854125E0,-5.632312936E-1,-1.864146846E1,-3.869254625E0,1.904711808E1
7.586808125E0,-2.356427469E0,-1.193275446E1,9.711890738E0,1.556483862E1
7.596762125E0,-9.657773734E-1,-5.617134148E0,1.272212740E1,1.394049668E1
7.606716125E0,4.339317554E0,-6.536386031E-1,-2.167618683E0,4.894434698E0
7.616670125E0,8.222406691E0,1.806757477E0,-6.254816869E0,1.048785385E1
7.626624125E0,6.386238889E0,-4.983628678E-1,-1.293071688E0,6.534863968E0
7.636578125E0,-6.199123310E0,-8.747101910E0,1.936040584E0,1.089445615E1
7.646532125E0,-1.347079086E1,-1.233840738E1,1.031975675E0,1.829654276E1
7.656487125E0,-9.003735620E0,-1.105274500E1,-1.082409197E1,1.789948027E1
7.666441125E0,-2.724533230E0,-1.415161843E1,-2.744101580E1,3.099517275E1
7.676395125E0,-3.428807990E-1,-2.149054300E1,-1.019587413E1,2.378900702E1
7.686349125E0,1.396010896E0,-1.444418738E1,6.458567777E0,1.588384378E1
7.696303125E0,4.901947169E0,-3.822799666E0,6.287940177E0,8.842006277E0
7.706257125E0,6.056723143E0,1.507725606E0,6.462664336E-1,6.274933629E0
7.716211125E0,2.849215748E0,4.668996436E0,-2.881402624E-1,5.477278787E0
7.726165125E0,1.783239098E0,2.134369369E0,-4.073527104E-1,2.810944773E0
7.736120125E0,2.631961866E0,-1.655845519E0,-3.418920786E0,4.621478875E0
7.746074125E0,2.631917719E0,-5.325518301E0,-5.331563737E0,7.982086691E0
7.756028125E0,1.723129137E0,-8.939601020E0,-3.869263396E0,9.892261604E0
7.765982125E0,-3.286499186E-1,-9.214465764E0,-1.085623586E0,9.284016838E0
7.775936125E0,-1.756916980E0,-5.422479170E0,1.234038784E0,5.832057042E0
7.785890125E0,-3.356424576E0,-2.184884634E0,2.285327227E0,4.611076592E0
7.795844125E0,-4.020614772E0,-6.300345629E-1,2.565862601E0,4.811022509E0
7.805798125E0,-3.151344012E0,-1.709293163E-1,2.250992085E0,3.876486976E0
7.815752125E0,-1.306523792E0,-4.869502723E-2,1.691713509E0,2.138052904E0
7.825707125E0,7.647025175E-1,3.715654117E-1,1.109000462E0,1.397395012E0
7.835661125E0,2.121149983E0,1.080415179E0,6.516783240E-1,2.468047578E0
7.845615125E0,2.389011225E0,1.821991228E0,2.641294022E-1,3.016088694E0
7.855569125E0,1.823281416E0,2.324036087E0,1.068914875E-2,2.953914880E0
7.865523125E0,8.080603525E-1,2.600894732E0,1.548553205E-1,2.727928722E0
7.875477125E0,-1.885355384E-1,2.681330785E0,2.880206868E-1,2.703338000E0
7.885431125E0,-8.796561460E-1,2.568360239E0,2.820157425E-1,2.729432566E0
7.895385125E0,-1.065892450E0,2.433967835E0,1.483558479E-1,2.661265788E0
7.905340125E0,-1.016297974E0,2.366186326E0,-1.853753011E-1,2.581872054E0
7.915294125E0,-9.876552424E-1,2.523737213E0,-8.191541286E-1,2.831205730E0
7.925248125E0,-9.461188882E-1,2.867958705E0,-1.414802678E0,3.334965473E0
7.935202125E0,-8.820436373E-1,3.326931220E0,-1.826539046E0,3.896500636E0
7.945156125E0,-9.946543595E-1,3.853879371E0,-2.105470090E0,4.502746695E0
7.955110125E0,-1.405147025E0,4.372191185E0,-2.421861759E0,5.191907963E0
7.965064125E0,-1.815454041E0,4.705905815E0,-2.668211679E0,5.706205086E0
7.975018125E0,-1.888455651E0,4.690807720E0,-2.430903894E0,5.610635931E0
7.984973125E0,-1.856760672E0,4.370358667E0,-2.117514039E0,5.199178856E0
7.994927125E0,-1.981445676E0,3.876014006E0,-2.177286470E0,4.867256713E0
8.004881125E0,-2.095340227E0,3.531052841E0,-2.387116435E0,4.749432567E0
8.014835125E0,-1.933575691E0,3.600054079E0,-2.602542770E0,4.844825403E0
8.024789125E0,-1.302632178E0,3.930983680E0,-2.190050941E0,4.684635142E0
8.034743125E0,-4.909037210E-2,4.380857343E0,-7.503369319E-1,4.444921421E0
8.044697125E0,1.366680970E0,4.826340916E0,1.147405852E0,5.145670384E0
8.054651125E0,2.103610529E0,4.890683092E0,1.765674355E0,5.609060910E0
8.064606125E0,2.681297748E0,4.014864328E0,1.396240253E0,5.025731790E0
8.074560125E0,3.474196562E0,2.759409825E0,1.598769385E0,4.715977935E0
8.084514125E0,4.298677066E0,1.848802466E0,2.095049182E0,5.126980218E0
8.094468125E0,4.063477786E0,6.996240306E-1,2.195266950E0,4.671244212E0
8.104422125E0,2.049380966E0,-1.359056055E0,4.566160285E0,5.186213981E0
8.114376125E0,2.229579873E-1,-3.390606814E0,1.797490517E0,3.844072969E0
8.124330125E0,1.528884633E-1,-4.890569656E0,3.218394619E0,5.856544234E0
8.134284125E0,1.907974242E0,-6.304798869E0,4.421315982E0,7.933403400E0
8.144238125E0,3.435890576E0,-8.694865808E0,1.717704383E0,9.505605916E0
8.154193125E0,2.491017071E0,-1.340887937E1,-3.576281639E0,1.409939724E1
8.164147125E0,-8.212057704E-1,-1.990350576E1,-6.231797551E0,2.087245125E1
8.174101125E0,-3.165213608E0,-2.447893564E1,-8.204677348E0,2.601064393E1
8.184055125E0,-2.084875904E0,-2.517042736E1,-7.226708311E0,2.627018146E1
8.194009125E0,4.357831154E-1,-2.247262964E1,-5.800138550E0,2.321315569E1
8.203963125E0,2.723420797E0,-1.679940842E1,-5.268641850E0,1.781560358E1
8.213917125E0,4.494641821E0,-1.145609178E1,-4.094565386E0,1.296955318E1
8.223871125E0,5.082093451E0,-8.049072999E0,-2.906707326E0,9.953099893E0
8.233826125E0,3.676914851E0,-6.776506035E0,-1.776751613E0,7.911863444E0
8.243780125E0,1.615255025E0,-5.914016583E0,-1.017362606E0,6.214472432E0
8.253734125E0,-6.243926577E-1,-5.185951695E0,-9.518869472E-1,5.309430284E0
8.263688125E0,-3.148738785E0,-4.618042629E0,-1.451254513E0,5.774687292E0
8.273642125E0,-4.270450217E0,-3.601008344E0,-9.700729573E-1,5.669660280E0
8.283596125E0,-3.876582648E0,-1.160362989E0,7.303070024E-2,4.047180349E0
8.293550125E0,-2.910227058E0,3.381507962E0,1.008948828E0,4.574056773E0
8.303504125E0,-1.750820381E0,8.225254869E0,1.332143075E0,8.514387520E0
8.313459125E0,-1.677093716E0,1.180268432E1,8.624409930E-1,1.195239745E1
8.323413125E0,-2.762864944E0,1.359035824E1,5.492063083E-2,1.386846336E1
8.333367125E0,-3.170805300E0,1.353726084E1,-3.509078566E-1,1.390807584E1
8.343321125E0,-3.032587647E0,1.245736665E1,-4.796869707E-1,1.283014697E1
8.353275125E0,-2.951489105E0,1.086368580E1,-2.098565332E-1,1.125944035E1
8.363229125E0,-3.325766455E0,8.754378769E0,-5.119553053E-1,9.378804209E0
8.373183125E0,-2.764794818E0,7.172455505E0,-1.742832792E0,7.881984173E0
8.383137125E0,-1.900386018E0,6.326127173E0,-2.667670519E0,7.123750278E0
8.393091125E0,-1.253076002E0,6.131915998E0,-2.781166145E0,6.848757434E0
8.403046125E0,-9.288262595E-1,6.508594215E0,-2.256093196E0,6.950861341E0
8.413000125E0,-5.466522079E-1,7.286831136E0,-1.356273365E0,7.432106975E0
8.422954125E0,1.732196158E-1,8.311811203E0,-3.691814288E-1,8.321809024E0
8.432908125E0,1.163412751E0,9.149697910E0,3.794060162E-1,9.231167315E0
8.442862125E0,2.068661575E0,9.782553170E0,8.235043108E-1,1.003273973E1
8.452816125E0,2.772954023E0,1.035484823E1,1.197561294E0,1.078639462E1
8.462770125E0,3.149786021E0,1.077645587E1,1.388771020E0,1.131290582E1
8.472724125E0,2.707317273E0,1.080445234E1,1.542471954E0,1.124477554E1
8.482678708E0,1.642812660E0,1.038260847E1,1.694748652E0,1.064751451E1
8.492632708E0,9.377139542E-1,9.687537085E0,1.867989081E0,9.910452333E0
8.502586708E0,9.311928470E-2,9.172640045E0,1.605443105E0,9.312542304E0
8.512540708E0,-7.079340204E-1,8.756264496E0,1.694315081E0,8.946733600E0
8.522494708E0,-1.285843068E0,8.471675833E0,1.823245894E0,8.760531342E0
8.532448708E0,-1.934857254E0,8.295693938E0,1.570826565E0,8.661968979E0
8.542402708E0,-2.370275576E0,8.311797754E0,1.291769367E0,8.739156499E0
8.552356708E0,-2.704036108E0,8.327422099E0,8.606271136E-1,8.797638838E0
8.562311708E0,-2.759376203E0,8.161914906E0,6.776867393E-1,8.642353341E0
8.572265708E0,-2.345555595E0,8.102007843E0,1.358831083E0,8.543452700E0
8.582219708E0,-1.465371007E0,8.121026496E0,3.145538896E0,8.831353152E0
8.592173708E0,-3.483473974E-1,7.920947056E0,5.110967002E0,9.433171888E0
8.602127708E0,1.252560570E0,8.427112448E0,3.973082171E0,9.400559246E0
8.612081708E0,2.898950703E0,7.315627504E0,-2.507854129E0,8.259034646E0
8.622035708E0,7.823998466E-1,1.035340163E0,-7.339255518E0,7.453103402E0
8.631989708E0,-4.330558425E0,-7.665900280E0,-5.213074590E0,1.023210194E1
8.641943708E0,-3.406722325E0,-2.012624491E1,-3.689206868E0,2.074323356E1
8.651898708E0,-3.044818414E-1,-3.309367354E1,-7.906442453E0,3.402639813E1
8.661852708E0,-2.944120443E0,-2.361736010E1,-3.866244478E0,2.411214196E1
8.671806708E0,2.704422901E0,-4.382103969E0,1.136235974E1,1.247477284E1
8.681760708E0,1.109940344E1,2.947790741E0,5.632914029E0,1.279124495E1
8.691714708E0,1.420908253E1,6.352222127E-1,1.712088424E0,1.432594780E1
8.701668708E0,-9.437596098E0,-1.804223528E1,-5.795287700E0,2.117016375E1
8.711622708E0,-2.882927811E1,-2.955706935E1,-9.776465049E0,4.243025918E1
8.721576708E0,-1.889483299E1,-1.997926229E1,-5.778338960E0,2.809937431E1
8.731530708E0,-2.641149888E0,-1.532831445E1,-1.335169887E0,1.561139248E1
8.741485708E0,3.824463784E0,-1.313343575E1,-5.594073315E0,1.477861002E1
8.751439708E0,7.649360261E0,-8.817052735E0,-8.163315314E0,1.424404606E1
8.761393708E0,1.041022604E1,-3.661639878E0,-4.846251563E0,1.205265809E1
8.771347708E0,1.238704803E1,-4.710552013E-1,-2.458138762E0,1.263737703E1
8.781301708E0,1.176367871E1,8.516902292E-1,9.536516368E-3,1.179447345E1
8.791255708E0,8.885430075E0,3.376258332E-1,2.983822453E0,9.379128704E0
8.801209708E0,5.610231510E0,-4.391282344E-1,3.685274616E0,6.726721356E0
8.811163708E0,1.973340850E0,-9.936150169E-1,3.101965153E0,3.808350394E0
8.821118708E0,-2.180305387E0,-1.930290433E0,2.728469868E0,3.990526350E0
8.831072708E0,-5.129625467E0,-3.412762499E0,2.243502971E0,6.556928464E0
8.841026708E0,-6.551765962E0,-4.097814683E0,1.493645511E0,7.870749603E0
8.850980708E0,-6.569443265E0,-2.618493097E0,8.476359160E-1,7.122680503E0
8.860934708E0,-4.855428768E0,4.549437833E-1,9.395635016E-1,4.966381171E0
8.870888708E0,-2.364277503E0,3.833570822E0,1.216584260E0,4.665420733E0
8.880842708E0,-6.046676604E-1,6.568993614E0,1.089974792E0,6.686205585E0
8.890796708E0,2.253332725E-1,8.315168089E0,8.503978483E-1,8.361577120E0
8.900750708E0,4.274514178E-1,8.704150602E0,8.424023657E-1,8.755260942E0
8.910705708E0,1.921327638E-1,8.077850071E0,9.735567284E-1,8.138574167E0
8.920659708E0,-5.612140772E-1,6.987367741E0,9.918105662E-1,7.079686249E0
8.930613708E0,-1.429587070E0,5.780632823E0,4.480393910E-1,5.971614047E0
8.940567708E0,-1.942307630E0,5.126016566E0,-5.115424919E-1,5.505477316E0
8.950521708E0,-2.043047554E0,4.731037148E0,-1.360209711E0,5.329814843E0
8.960475708E0,-1.921434094E0,4.213746843E0,-1.607741060E0,4.902285462E0
8.970429708E0,-1.659313502E0,3.791998873E0,-1.496462992E0,4.401360953E0
8.980383708E0,-1.479170144E0,3.787974819E0,-1.343442089E0,4.282701739E0
8.990338708E0,-1.470483666E0,4.150561831E0,-1.340551225E0,4.602886411E0
9.000292708E0,-1.478454737E0,4.380767881E0,-1.477528245E0,4.853869111E0
9.010246708E0,-1.245718305E0,4.267257637E0,-1.999291817E0,4.874266058E0
9.020200708E0,-1.079053216E0,3.705656548E0,-3.399313903E0,5.143110081E0
9.030154708E0,-1.296851621E0,2.865364296E0,-4.845123342E0,5.776448466E0
9.040108708E0,-2.086800077E0,1.472952799E0,-5.880269963E0,6.411076301E0
9.050062708E0,-4.043405465E0,-4.157855648E-1,-6.158785708E0,7.379203669E0
9.060016708E0,-5.380683857E0,-2.156725613E0,-5.779087404E0,8.185418460E0
9.069970708E0,-4.015448757E0,-1.241556256E0,-2.976830353E0,5.150418391E0
9.079925708E0,1.790654830E0,2.795967786E0,7.886794639E0,8.557184715E0
9.089879708E0,7.207614813E0,6.553296763E0,1.069841425E1,1.446898328E1
9.099833708E0,1.400671040E1,8.750029026E0,4.287574958E0,1.706265639E1
9.109787708E0,1.423716203E1,6.753884327E0,-7.788558492E-1,1.577714653E1
9.119741708E0,-1.674672968E0,1.789688870E0,-3.803356797E0,4.524714215E0
9.129695708E0,-1.036798108E1,-4.649938606E0,-4.450363196E0,1.220338860E1
9.139649708E0,-4.641087383E0,-8.348545750E0,-2.324894459E0,9.830719327E0
9.149603708E0,1.568628158E-1,-8.478020062E0,-8.750358224E-1,8.524501030E0
9.159557708E0,-4.777186590E0,-1.279088949E1,-5.302698373E0,1.464742215E1
9.169512708E0,-3.659081428E0,-1.334508157E1,-2.573611624E0,1.407492650E1
9.179466708E0,-9.244806819E-1,-1.000603726E1,-3.189910492E0,1.054281628E1
9.189420708E0,-1.739162202E-1,-8.686615972E0,-2.817617687E0,9.133811544E0
9.199374708E0,7.178265591E-1,-9.758403000E0,-3.053382685E0,1.025011463E1
9.209328708E0,3.638745689E0,-1.164663733E1,-5.256873159E0,1.328605836E1
9.219282708E0,4.852355179E0,-1.335429211E1,-4.265714557E0,1.483505272E1
9.229236708E0,3.209763544E0,-1.443213743E1,-2.859196068E0,1.505869102E1
9.239190708E0,1.268433276E0,-1.398250760E1,-2.400955040E0,1.424373641E1
9.249145708E0,6.699008793E-1,-1.263026765E1,-1.841615068E0,1.278139171E1
9.259099708E0,3.296508888E-1,-1.103961917E1,-1.086483127E0,1.109785144E1
9.269053708E0,-4.332496996E-1,-9.881780419E0,-4.194266260E-1,9.900162032E0
9.279007708E0,-1.130588675E0,-8.858436989E0,1.930589810E-1,8.932379773E0
9.288961708E0,-2.110020685E0,-9.614101319E0,-1.694195652E-1,9.844380857E0
9.298915708E0,-2.719604027E0,-1.047134114E1,-1.361013410E0,1.090401710E1
9.308869708E0,-2.351865033E0,-8.806213751E0,-2.465733418E0,9.442484369E0
9.318823708E0,-1.683815821E0,-5.075561526E0,-2.775646373E0,6.025012308E0
9.328777708E0,-6.069512904E-1,-1.379745258E0,-2.664695456E0,3.061484725E0
9.338732708E0,3.279610800E-1,2.260134206E0,-2.768601648E0,3.588999886E0
9.348686708E0,5.969417343E-1,6.276672007E0,-3.037095265E0,6.998349704E0
9.358640708E0,3.483681550E-1,9.939681888E0,-3.041377766E0,1.040041418E1
9.368594708E0,6.977786493E-1,1.279893292E1,-2.659592006E0,1.309095140E1
9.378548708E0,2.192946190E0,1.421937714E1,-3.106251454E0,1.471898425E1
9.388502708E0,3.818368354E0,1.305396040E1,-4.268424157E0,1.425500838E1
9.398456708E0,1.882255117E0,8.945773925E0,-5.604709400E0,1.072299039E1
9.408410708E0,-4.087059753E-1,5.110754163E0,-5.985660177E0,7.881305504E0
9.418364708E0,-1.469394768E0,3.248663900E0,-5.727624890E0,6.746749217E0
9.428319708E0,-3.593274817E0,2.789379144E0,-5.381916450E0,7.046792504E0
9.438273708E0,-5.721710431E0,3.950833808E0,-3.505342634E0,7.786814818E0
9.448227708E0,-7.639926363E0,6.935433356E0,-3.351530457E-1,1.032380929E1
9.458181708E0,-7.536837028E0,1.051226229E1,4.082055852E0,1.356372924E1
9.468135708E0,-6.131172232E0,1.313277502E1,8.921765842E0,1.701937009E1
9.478089708E0,-2.596567208E0,1.340961612E1,9.533647724E0,1.665684258E1
9.488044125E0,8.128264180E-1,1.240665258E1,7.048334320E0,1.429212131E1
9.497998125E0,2.084606494E0,1.115033386E1,2.385369287E0,1.159161404E1
9.507952125E0,1.638195406E0,9.784288623E0,-1.116705996E0,9.983136798E0
9.517907125E0,1.179258047E0,9.433053980E0,-8.976013970E-1,9.548761449E0
9.527861125E0,1.017399224E0,9.231226807E0,5.207098297E-1,9.301708890E0
9.537815125E0,9.982540517E-1,9.159621220E0,1.336764715E0,9.310322870E0
9.547769125E0,1.066640528E0,9.236800958E0,1.134366853E0,9.367123470E0
9.557723125E0,1.026395312E0,9.344578006E0,9.820444735E-1,9.451932966E0
9.567677125E0,9.110177603E-1,9.595859760E0,1.128962783E0,9.704897468E0
9.577631125E0,6.115054674E-1,9.743108438E0,9.921450269E-1,9.812566062E0
9.587585125E0,4.205378893E-1,9.707397153E0,4.030181694E-1,9.724856567E0
9.597540125E0,3.580955830E-1,9.594571034E0,-4.734525232E-1,9.612917510E0
9.607494125E0,9.817228401E-2,9.382146952E0,-1.055172091E0,9.441806361E0
9.617448125E0,-1.469275558E-1,9.201620600E0,-1.047127565E0,9.262174988E0
9.627402125E0,-2.161555742E-1,8.875305621E0,-1.052515263E0,8.940109702E0
9.637356125E0,-1.390037015E-1,8.089533978E0,-1.343843500E0,8.201572859E0
9.647310125E0,2.157331129E-2,6.326195585E0,-2.744548541E0,6.895923628E0
9.657264125E0,-4.197793593E-1,3.179403630E0,-5.062333370E0,5.992665626E0
9.667218125E0,-2.754468635E0,2.939658433E-1,-6.337195952E0,6.916181455E0
9.677172125E0,-5.052473211E0,-4.535059530E0,-6.466220613E0,9.375833802E0
9.687127125E0,-4.138084165E0,-1.398088441E1,5.476871724E0,1.557514024E1
9.697081125E0,-2.842675930E0,-2.340797131E1,7.866251031E0,2.485743013E1
9.707035125E0,3.521229226E0,-2.347651003E1,-5.489611638E0,2.436557848E1
9.716989125E0,3.658349065E0,-1.295483606E1,-7.479650674E0,1.539988537E1
9.726943125E0,6.359150493E0,-2.549034607E0,1.278413245E1,1.450415164E1
9.736897125E0,1.178551689E1,2.247931067E0,1.013718914E1,1.570713870E1
9.746851125E0,5.991589254E0,-8.992876756E0,-5.898486963E0,1.231109754E1
9.756805125E0,-1.731486504E1,-3.140184016E1,-2.346115057E1,4.285213767E1
9.766759125E0,-2.430746487E1,-3.204284936E1,-1.548920527E1,4.309886917E1
9.776714125E0,1.326816408E0,-1.498207742E1,1.230027886E0,1.509092622E1
9.786668125E0,6.375643734E0,-8.146126254E0,1.252964759E-1,1.034523587E1
9.796622125E0,5.901702932E0,-5.038884282E0,1.339954371E0,7.875019366E0
9.806576125E0,4.596304143E0,-2.487542363E0,3.553443876E0,6.319876753E0
9.816530125E0,2.955174312E0,-1.391475942E0,5.090741483E0,6.048546053E0
9.826484125E0,2.328544291E0,-1.883357171E0,4.952052544E0,5.787225341E0
9.836438125E0,1.785657215E0,-1.913663290E0,4.731580062E0,5.407266293E0
9.846392125E0,1.531769503E0,-1.882974764E0,3.220020729E0,4.032424242E0
9.856346125E0,3.210868010E-1,-2.097671074E0,1.524744512E0,2.613076060E0
9.866301125E0,-1.143260614E0,-2.084169268E0,6.456824429E-1,2.463272658E0
9.876255125E0,-1.418762559E0,-6.529135484E-1,2.271552649E-1,1.578221408E0
9.886209125E0,-9.492450289E-1,1.093997676E0,-2.054490848E-1,1.462910239E0
9.896163125E0,-7.579801382E-2,2.225377772E0,-7.830415054E-1,2.360340138E0
9.906117125E0,1.146646956E0,3.011728290E0,-1.702449435E0,3.644672909E0
9.916071125E0,1.712096172E0,3.907064475E0,-1.898725554E0,4.669216727E0
9.926025125E0,1.394680801E0,4.841433164E0,-1.824450567E0,5.358472683E0
9.935979125E0,4.912997968E-1,5.482307296E0,-1.896694086E0,5.821899796E0
9.945933125E0,-8.737033881E-1,5.799919279E0,-1.907105492E0,6.167614824E0
9.955888125E0,-2.116659760E0,5.586700560E0,-1.989945481E0,6.296932167E0
9.965842125E0,-2.659082129E0,5.105597504E0,-2.257759652E0,6.183471702E0
9.975796125E0,-3.024657945E0,4.778264524E0,-2.289349819E0,6.100941743E0
9.985750125E0,-3.266719517E0,4.456895120E0,-2.352150085E0,6.005662373E0
9.995704125E0,-3.319347674E0,4.102573732E0,-2.464374526E0,5.824287253E0
1.000565812E1,-3.331199103E0,3.891779269E0,-2.501272795E0,5.700806867E0
1.001561213E1,-3.081900725E0,3.953271512E0,-2.210441644E0,5.478368369E0
1.002556613E1,-2.591375465E0,4.150951256E0,-1.994377524E0,5.284237394E0
1.003552113E1,-2.249101680E0,4.343992403E0,-1.877151375E0,5.239506241E0
1.004547512E1,-2.266509133E0,4.723597736E0,-1.773503777E0,5.531252559E0
1.005542913E1,-2.618718799E0,5.216243196E0,-2.048817441E0,6.185833342E0
1.006538313E1,-2.815558882E0,5.427399017E0,-2.106206401E0,6.466849102E0
1.007533712E1,-2.635057089E0,5.777895157E0,-2.771846268E-1,6.356447878E0
1.008529113E1,-1.315977571E0,6.589854725E0,1.865850900E0,6.974193992E0
1.009524513E1,1.163784414E0,7.147686115E0,1.944362926E0,7.498290349E0
1.010519913E1,4.029273037E0,6.632835268E0,1.124953713E0,7.841878969E0
1.011515312E1,4.734478235E0,3.334080611E0,5.017846584E-1,5.812328752E0
1.012510713E1,2.986890779E0,-1.007552440E0,-1.230700901E0,3.383977416E0
1.013506213E1,1.434524021E0,-5.395693660E0,-3.621818000E0,6.654993228E0
1.014501612E1,1.099045285E0,-8.208975052E0,-2.228989012E0,8.576920424E0
1.015497013E1,1.163654679E0,-6.335475701E0,2.603255545E0,6.947609949E0
1.016492413E1,2.459526307E0,-2.940493416E0,5.159891825E0,6.428083293E0
1.017487813E1,2.336290828E0,-1.169736076E0,1.002683464E0,2.798555243E0
1.018483212E1,-1.842859356E0,-3.787715203E0,-3.063435802E0,5.208412040E0
1.019478613E1,-2.684271057E0,-9.254841372E0,-4.987391362E0,1.085041347E1
1.020474013E1,1.119497530E0,-1.416282871E1,-3.373628839E0,1.460206710E1
1.021469412E1,4.600808546E0,-1.614105521E1,-4.172532159E0,1.729482949E1
1.022464913E1,5.317380731E0,-1.579859197E1,-4.098278952E0,1.716583632E1
1.023460313E1,1.791260309E0,-1.516766103E1,-1.695000814E0,1.536683384E1
1.024455712E1,-2.096690349E0,-1.442073887E1,-1.662352593E0,1.466687547E1
1.025451113E1,-2.273780877E0,-1.416871218E1,-2.382879250E0,1.454649779E1
1.026446513E1,-1.106359202E0,-1.351050632E1,-2.189280571E0,1.373137870E1
1.027441913E1,2.368482308E-1,-1.264686906E1,-1.768714907E0,1.277214729E1
1.028437312E1,7.582406133E-1,-1.216415919E1,-9.219717148E-1,1.222259095E1
1.029432713E1,3.097098004E-1,-1.145521820E1,-3.748138323E-1,1.146553225E1
1.030428113E1,-5.467047963E-1,-1.012162853E1,-7.886856034E-1,1.016701899E1
1.031423612E1,-9.746175595E-1,-8.303059675E0,-1.551894157E0,8.502885089E0
1.032419013E1,-5.928735706E-1,-6.860204249E0,-2.104282959E0,7.200132511E0
1.033414413E1,-9.469295315E-2,-5.135259844E0,-1.882687665E0,5.470317474E0
1.034409813E1,1.797218110E-1,-2.995333282E0,-1.528813151E0,3.367727876E0
1.035405212E1,6.964728199E-3,2.895055872E-1,-1.678949476E0,1.703740982E0
1.036400613E1,-2.165512662E-2,4.089222785E0,-2.051094493E0,4.574844319E0
1.037396013E1,1.781265078E-1,8.063060124E0,-2.624231554E0,8.481229797E0
1.038391412E1,5.642175727E-1,1.131255667E1,-2.819960082E0,1.167237999E1
1.039386813E1,1.492756149E0,1.368717409E1,-2.850431092E0,1.406029918E1
1.040382313E1,2.673957446E0,1.418468678E1,-3.845463474E0,1.493797097E1
1.041377713E1,1.915609536E0,1.218201658E1,-5.089659748E0,1.334075426E1
1.042373112E1,4.450748527E-1,7.550359883E0,-4.953515518E0,9.041202463E0
1.043368513E1,6.058802998E-1,4.004319459E0,-4.124144111E0,5.780158295E0
1.044363913E1,-2.101569705E-1,3.380166610E0,-3.676855502E0,4.998895743E0
1.045359312E1,-1.797379566E0,3.854757623E0,-3.673389273E0,5.619921564E0
1.046354713E1,-3.743954933E0,5.332417431E0,-3.956214416E0,7.622565625E0
1.047350113E1,-4.829857432E0,7.727816446E0,-2.560364757E0,9.465840561E0
1.048345513E1,-4.754309651E0,1.019911817E1,2.974149697E-1,1.125672809E1
1.049340996E1,-3.879928717E0,1.207707310E1,3.749611237E0,1.322758957E1
1.050336396E1,-2.521431656E0,1.313384272E1,6.502226597E0,1.487058818E1
1.051331796E1,-6.995493324E-1,1.262166405E1,6.710855252E0,1.431193037E1
1.052327196E1,8.065140563E-1,1.151933877E1,4.982357494E0,1.257654630E1
1.053322596E1,1.748867118E0,1.052338838E1,3.594709139E0,1.125709434E1
1.054317996E1,1.658327077E0,9.593500993E0,1.900423586E0,9.919522156E0
1.055313396E1,6.916922826E-1,9.107014990E0,7.237742007E-1,9.161878046E0
1.056308796E1,-3.487243966E-1,9.025018315E0,4.775176171E-1,9.044367715E0
1.057304196E1,-7.587732947E-1,8.906053789E0,6.802569560E-1,8.964166472E0
1.058299696E1,-4.280465547E-1,8.932330592E0,8.705861644E-1,8.984858036E0
1.059295096E1,-9.737777531E-2,8.938494726E0,8.309992719E-1,8.977568167E0
1.060290496E1,-6.708517827E-2,8.761217673E0,8.503161335E-1,8.802640119E0
1.061285896E1,-3.107545882E-1,8.615872849E0,8.913181253E-1,8.667426455E0
1.062281296E1,-6.493755443E-1,8.434834866E0,8.417349060E-1,8.501567236E0
1.063276696E1,-1.041821071E0,8.273979717E0,7.404014893E-1,8.372115974E0
1.064272096E1,-1.256726711E0,8.124337190E0,5.365475249E-1,8.238452527E0
1.065267496E1,-9.840942881E-1,7.675728865E0,-3.841620684E-2,7.738651754E0
1.066262996E1,-4.697679002E-1,6.152903409E0,-1.968785577E0,6.477269401E0
1.067258396E1,-3.052681457E-1,3.335088086E0,-4.296061022E0,5.447214103E0
1.068253796E1,-2.053334707E0,9.250704467E-1,-8.244170612E0,8.546244078E0
1.069249196E1,-4.793911089E0,-2.471325696E0,-6.132315363E0,8.166659411E0
1.070244596E1,-4.370628224E0,-8.748867184E0,1.237371697E0,9.857796751E0
1.071239996E1,-2.350649689E0,-1.647893188E1,-1.583303207E-1,1.664649568E1
1.072235396E1,3.049063346E0,-1.593139393E1,6.021818190E0,1.730226558E1
1.073230796E1,3.956880999E0,-1.202154794E1,-6.393984110E0,1.417947654E1
1.074226196E1,-5.869062312E-1,-7.475096862E0,-1.034897237E0,7.569183861E0
1.075221596E1,1.429655191E0,-6.982979406E0,6.976683708E0,9.973967661E0
1.076217096E1,-1.013725200E-1,-1.578227707E1,-1.262641784E1,2.021180282E1
1.077212496E1,-1.629801319E1,-2.900891160E1,-2.676922218E1,4.270519221E1
1.078207896E1,-1.304397569E1,-2.426225887E1,2.280441586E0,2.764060277E1
1.079203296E1,2.928563049E0,-1.277970961E1,9.825822566E0,1.638426832E1
1.080198696E1,5.780664398E0,-7.708849833E0,-1.316363779E0,9.724981246E0
1.081194096E1,9.409329488E0,-4.686306533E0,-3.895348117E0,1.121029381E1
1.082189496E1,1.160930286E1,-2.676854156E0,-1.374360557E0,1.199292825E1
1.083184896E1,1.251995641E1,-2.894487523E0,4.533916399E-1,1.285818535E1
1.084180296E1,1.034778713E1,-4.652352337E0,9.882352862E-1,1.138848936E1
1.085175796E1,5.194075232E0,-6.409814277E0,7.847235301E-1,8.287335374E0
1.086171196E1,3.252087591E-1,-6.074891612E0,7.960604042E-2,6.084110942E0
1.087166596E1,-2.200565258E0,-4.133376864E0,8.003844202E-1,4.750569121E0
1.088161996E1,-3.158902708E0,-1.555547644E0,1.232603292E0,3.730644135E0
1.089157396E1,-3.299258687E0,2.309147322E-1,1.772605060E0,3.752406987E0
1.090152796E1,-2.267392940E0,1.524070328E0,2.245303913E0,3.536276399E0
1.091148196E1,-9.005634503E-1,2.887345149E0,2.363991866E0,3.838780285E0
1.092143596E1,1.281358838E-1,4.430929390E0,1.951298601E0,4.843255134E0
1.093138996E1,2.508980668E-1,5.789367394E0,1.208707330E0,5.919518398E0
1.094134496E1,-2.643943907E-1,6.721108929E0,2.552202921E-1,6.731147527E0
1.095129896E1,-7.738237354E-1,7.342144627E0,-5.903712912E-1,7.406377600E0
1.096125296E1,-7.918939707E-1,7.481649252E0,-1.017254140E0,7.591902105E0
1.097120696E1,-5.478007838E-1,6.981367913E0,-6.919547495E-1,7.036930084E0
1.098116096E1,-3.599392466E-1,6.164123046E0,2.787683451E-1,6.180912633E0
1.099111496E1,-3.102454784E-1,5.386909388E0,1.085541506E0,5.503948162E0
1.100106896E1,-5.444624622E-1,4.389283181E0,7.154688156E-1,4.480417597E0
1.101102296E1,-1.134789680E0,3.227525046E0,-4.883197633E-1,3.455882193E0
1.102097696E1,-1.339558807E0,1.824400865E0,-1.489614440E0,2.709576996E0
1.103093196E1,-1.326905432E0,1.701615769E-1,-2.806990957E0,3.109474429E0
1.104088596E1,-1.518559327E0,-1.772213296E0,-4.492373686E0,5.062428640E0
1.105083996E1,-1.898305578E0,-3.846665077E0,-5.663410767E0,7.104549092E0
1.106079396E1,-2.163403133E0,-5.113502939E0,-5.976080099E0,8.157313208E0
1.107074796E1,-2.467543424E0,-4.820255134E0,-5.429669491E0,7.668437969E0
1.108070196E1,-2.830014077E0,-3.089457082E0,-4.151447099E0,5.898155453E0
1.109065596E1,-2.604860898E0,-1.184692669E0,-3.034027816E0,4.170626069E0
1.110060996E1,-1.706270006E0,6.241961181E-2,-2.287234297E0,2.854241453E0
1.111056396E1,-9.499020367E-1,1.267490412E0,-1.584104276E0,2.240141107E0
1.112051896E1,-5.397414934E-1,2.255322533E0,-1.144522151E0,2.586064879E0
1.113047296E1,-4.978154588E-1,2.709856426E0,-9.291132116E-1,2.907643967E0
1.114042696E1,-5.534491941E-1,2.727847139E0,-7.846309979E-1,2.891902804E0
1.115038096E1,-4.747043755E-1,2.623481941E0,-1.034689514E0,2.859822395E0
1.116033496E1,-5.567700106E-1,2.752514203E0,-1.051484910E0,2.998657666E0
1.117028896E1,-6.197457292E-1,2.971384256E0,3.251531374E-1,3.052692865E0
1.118024296E1,-3.180344447E-1,3.716708370E0,1.564188805E0,4.044966456E0
1.119019696E1,4.904893727E-1,4.733202957E0,3.097762467E0,5.678020989E0
1.120015096E1,8.891004226E-1,5.074014938E0,2.950811412E0,5.936616473E0
1.121010496E1,9.955224518E-2,4.932971910E0,3.012400720E-1,4.943163774E0
1.122005996E1,-4.170016395E-1,4.506805784E0,-1.011982875E0,4.637811777E0
1.123001396E1,2.557522425E-1,3.936239743E0,-8.985281807E-1,4.045583445E0
1.123996796E1,1.190996040E0,3.373549317E0,-1.143124520E0,3.755800877E0
1.124992196E1,2.406427449E0,2.204109110E0,6.909616730E-1,3.335628587E0
1.125987596E1,3.058099049E0,1.818933134E0,2.270298714E0,4.220751567E0
1.126982996E1,2.782926157E0,2.323392894E0,1.048473594E0,3.773874588E0
1.127978396E1,1.085442396E0,2.304387689E0,1.049511183E0,2.754970333E0
1.128973796E1,-2.212013522E0,1.103085419E0,2.336268463E0,3.401169151E0
1.129969196E1,-4.092118033E0,-7.711734849E-1,3.418285194E0,5.387468071E0
1.130964696E1,-2.635975395E0,-2.942546958E0,2.143675212E0,4.494696018E0
1.131960096E1,-2.343732689E-1,-4.539285897E0,-3.547491411E0,5.765825404E0
1.132955496E1,-5.231951522E-2,-3.996998160E0,-5.722320880E0,6.980235518E0
1.133950896E1,1.264166745E-1,-3.868910809E0,1.422265041E0,4.123989557E0
1.134946296E1,8.661293435E-1,-5.588663471E0,3.611078419E0,6.709934931E0
1.135941696E1,1.081300448E0,-7.720652438E0,1.447665930E0,7.929276220E0
1.136937096E1,2.648734019E0,-9.759638516E0,-3.665832331E0,1.075661018E1
1.137932496E1,3.078928000E0,-1.033879178E1,-2.743227071E0,1.113084488E1
1.138927896E1,1.896396609E0,-1.030675605E1,5.845543349E-1,1.049605851E1
1.139923396E1,6.105089557E-1,-1.094703318E1,-7.198621210E-1,1.098765026E1
1.140918796E1,-8.092387492E-2,-1.180533544E1,-3.459105776E0,1.230194726E1
1.141914196E1,5.438603086E-1,-1.332079926E1,-3.778881522E0,1.385710729E1
1.142909596E1,2.148520069E0,-1.307950338E1,-3.977917234E0,1.383883567E1
1.143904996E1,2.482963994E0,-1.156407114E1,-3.948660983E0,1.246935344E1
1.144900396E1,1.654758521E0,-1.047556517E1,-2.539210407E0,1.090519513E1
1.145895796E1,5.311282524E-1,-1.077102030E1,-1.439660215E0,1.087977927E1
1.146891196E1,-7.853705976E-1,-1.105645564E1,-5.740196988E-1,1.109916740E1
1.147886596E1,-1.857175679E0,-1.022597092E1,3.611953747E-1,1.039952138E1
1.148882025E1,-1.805045266E0,-8.313932573E0,5.091280304E-1,8.522844278E0
1.149877525E1,-1.073949986E0,-6.296323330E0,-8.263112667E-1,6.440484947E0
1.150872925E1,-4.941643477E-1,-4.691011203E0,-2.719234775E0,5.444632428E0
1.151868325E1,-1.719932172E-1,-3.031501819E0,-3.792671303E0,4.858388679E0
1.152863725E1,-8.797330369E-1,-1.239970492E0,-3.501401610E0,3.817233327E0
1.153859125E1,-1.013957334E0,6.963519287E-1,-2.827211798E0,3.083203210E0
1.154854525E1,-3.242747395E-1,3.779725567E0,-2.503063213E0,4.544975788E0
1.155849925E1,2.694312188E-1,7.030410265E0,-2.765661668E0,7.559639286E0
1.156845325E1,3.008728668E-2,9.345401879E0,-1.724542701E0,9.503235715E0
1.157840725E1,1.023618323E-1,1.139073862E1,-1.532558877E-2,1.139120885E1
1.158836225E1,1.554526135E-1,1.238425189E1,-1.649207175E-1,1.238632550E1
1.159831625E1,-2.715165186E-1,1.199195635E1,-1.802928135E0,1.212976868E1
1.160827025E1,-1.703618879E0,9.917740796E0,-4.128646467E0,1.087702264E1
1.161822425E1,-1.753739896E0,6.814948554E0,-4.816225233E0,8.527318037E0
1.162817825E1,-1.005224956E0,3.811913320E0,-4.445412358E0,5.941620267E0
1.163813225E1,-1.251375778E-1,2.369625658E0,-4.301110092E0,4.912263552E0
1.164808625E1,-1.654287309E-1,2.591966618E0,-4.149059097E0,4.894930950E0
1.165804025E1,-1.779022525E0,4.566283076E0,-4.537585527E0,6.678738256E0
1.166799425E1,-3.621011669E0,7.060885368E0,-4.921452895E0,9.337479654E0
1.167794925E1,-4.794462189E0,9.493258082E0,-2.745402235E0,1.098389959E1
1.168790325E1,-4.473619619E0,1.242031167E1,4.415419650E0,1.392024947E1
1.169785725E1,-3.381995620E0,1.388308388E1,1.002929398E1,1.745750985E1
1.170781125E1,-1.242485818E0,1.311130170E1,8.010415303E0,1.541482263E1
1.171776525E1,8.071335688E-1,1.194043536E1,4.362179582E0,1.273789904E1
1.172771925E1,1.945737315E0,1.069655951E1,1.269299541E0,1.094593077E1
1.173767325E1,1.723941315E0,9.031242092E0,-7.194659722E-1,9.222415012E0
1.174762725E1,8.788104194E-1,8.359077170E0,-4.694752836E-1,8.418247201E0
1.175758125E1,-1.514432508E-2,8.340048577E0,2.755629746E-1,8.344613506E0
1.176753625E1,-4.554345839E-1,8.417800173E0,5.665858412E-1,8.449130128E0
1.177749025E1,-3.039508229E-1,8.532230768E0,5.815068392E-1,8.557423571E0
1.178744425E1,7.874907615E-2,8.519451093E0,5.315902555E-1,8.536383107E0
1.179739825E1,3.565901077E-1,8.449739419E0,3.764298566E-1,8.465633596E0
1.180735225E1,2.183731490E-1,8.347159960E0,2.687859786E-1,8.354340916E0
1.181730625E1,-7.553586669E-2,8.449707844E0,4.826160237E-2,8.450183282E0
1.182726025E1,-2.024698919E-1,8.571688948E0,-1.108229653E0,8.645404470E0
1.183721425E1,3.964366531E-2,7.591846463E0,-2.866321485E0,8.115017141E0
1.184716825E1,-2.442434055E-2,4.993129234E0,-4.107280741E0,6.465422738E0
1.185712225E1,-1.415916426E0,1.764105547E0,-9.331627593E0,9.601883213E0
1.186707725E1,-2.269123423E0,-2.782002881E0,-4.452367329E0,5.719443677E0
1.187703125E1,-1.092705076E0,-1.309063063E1,1.734624763E0,1.325019010E1
1.188698525E1,-7.292244635E-1,-2.443588843E1,1.454213350E0,2.448998057E1
1.189693925E1,-7.007146094E-1,-2.666184157E1,-3.330853533E0,2.687823250E1
1.190689325E1,-2.550159319E0,-1.833071702E1,6.566402712E-1,1.851890049E1
1.191684725E1,-3.274001639E0,-6.655490305E0,1.098192586E1,1.325206903E1
1.192680125E1,6.340156397E0,-1.952706903E-1,1.023068144E1,1.203754778E1
1.193675525E1,1.212628794E1,-4.561687750E0,-3.745086662E0,1.348634600E1
1.194670925E1,-1.161445543E1,-2.370269437E1,-2.165534560E1,3.414187002E1
1.195666425E1,-1.715518342E1,-2.348598720E1,-7.902533004E0,3.013871167E1
1.196661825E1,1.419939749E0,-1.098455126E1,2.120551521E0,1.127711550E1
1.197657225E1,6.846479080E0,-6.369091344E0,3.099860448E0,9.851331643E0
1.198652625E1,7.796840488E0,-2.978489208E0,3.570672405E0,9.078095669E0
1.199648025E1,7.397147630E0,-6.616457802E-1,2.288357839E0,7.771238628E0
1.200643425E1,6.553484459E0,-1.066251469E0,1.357735754E0,6.777056671E0
1.201638825E1,4.365117223E0,-1.708407894E0,1.622964286E0,4.960536159E0
1.202634225E1,1.840019071E0,-8.855847842E-1,1.685963065E0,2.648094040E0
1.203629625E1,-1.579531753E-1,2.258598143E-1,1.331946901E0,1.360163376E0
1.204625025E1,-1.273438346E0,5.632634532E-1,9.242816573E-1,1.671289179E0
1.205620525E1,-1.855487003E0,4.979196489E-1,1.015444427E0,2.172989503E0
1.206615925E1,-2.398621416E0,2.446919417E-1,1.393703877E0,2.784900239E0
1.207611325E1,-2.652370110E0,2.383249086E-1,1.734284163E0,3.177987967E0
1.208606725E1,-2.475341856E0,6.951684523E-1,1.696282816E0,3.080251917E0
1.209602125E1,-1.841103729E0,1.819229588E0,1.388413463E0,2.937167203E0
1.210597525E1,-1.183889992E0,2.941489196E0,9.565683742E-1,3.311944634E0
1.211592925E1,-5.506397897E-1,3.565664265E0,4.720072742E-1,3.638675129E0
1.212588325E1,9.437537625E-2,3.735069796E0,-1.662933514E-2,3.736298921E0
1.213583725E1,5.091040934E-1,3.617567074E0,-5.252717543E-1,3.690784325E0
1.214579225E1,7.821602570E-1,3.135773461E0,-1.072248081E0,3.405079414E0
1.215574625E1,8.674250865E-1,2.454954076E0,-1.550846336E0,3.030569279E0
1.216570025E1,8.747213153E-1,1.785269544E0,-1.892823375E0,2.745014582E0
1.217565425E1,5.974945886E-1,1.123880457E0,-2.345540392E0,2.668645124E0
1.218560825E1,1.151510816E-1,5.109829134E-1,-2.499910394E0,2.554195624E0
1.219556225E1,-3.368835291E-1,1.048885238E-1,-2.135694348E0,2.164643726E0
1.220551625E1,-6.732266293E-1,-4.705254436E-2,-1.694081047E0,1.823556588E0
1.221547025E1,-9.570684573E-1,7.260487676E-3,-1.471503274E0,1.755378772E0
1.222542425E1,-1.136193231E0,1.645991206E-1,-1.234521471E0,1.685844356E0
1.223537825E1,-1.162710646E0,2.648279983E-1,-1.046084422E0,1.586292071E0
1.224533325E1,-1.165734753E0,1.960086089E-1,-1.180031269E0,1.670278625E0
1.225528725E1,-9.715702830E-1,5.449137211E-2,-8.657176995E-1,1.302453554E0
1.226524125E1,-5.672723774E-1,-1.681893110E-1,-1.147773349E-1,6.027100722E-1
1.227519525E1,-2.268778876E-1,-4.450175500E-1,4.567494035E-1,6.768561245E-1
1.228514925E1,-7.891493607E-2,-5.969352293E-1,6.500361335E-1,8.860621931E-1
1.229510325E1,1.386513703E-2,-3.658386487E-1,7.105700183E-1,7.993371690E-1
1.230505725E1,6.808348071E-2,3.189270222E-1,6.898235124E-1,7.630244322E-1
1.231501125E1,1.355235484E-1,1.084801176E0,6.033145416E-1,1.248658744E0
1.232496525E1,9.520674068E-2,1.613476594E0,4.920274097E-1,1.689515320E0
1.233492025E1,-7.356941152E-2,1.940248241E0,5.697210451E-1,2.023501362E0
1.234487425E1,-5.299805901E-1,1.814870489E0,5.351763529E-1,1.964954973E0
1.235482825E1,-1.053103712E0,1.228765472E0,3.353886884E-1,1.652687988E0
1.236478225E1,-1.339150817E0,4.057149053E-1,-2.612481136E-2,1.399504198E0
1.237473625E1,-1.210961651E0,-6.733904976E-1,-4.660021106E-1,1.461862117E0
1.238469025E1,-6.211255259E-1,-1.616227124E0,-1.233045049E0,2.125649814E0
1.239464425E1,1.286508042E-1,-2.200053481E0,-2.383801648E0,3.246428290E0
1.240459825E1,5.053255130E-1,-2.291833717E0,-3.692201520E0,4.374952311E0
1.241455225E1,5.235366661E-1,-2.051370481E0,-5.079278601E0,5.502843138E0
1.242450625E1,3.659460182E-1,-2.171801489E0,-5.823970047E0,6.226497033E0
1.243446125E1,3.638459176E-2,-2.373988266E0,-5.635371029E0,6.115108402E0
1.244441525E1,-5.035394078E-1,-2.089458075E0,-4.894670894E0,5.345763756E0
1.245436925E1,-1.092937722E0,-1.232285496E0,-4.217586710E0,4.527811620E0
1.246432325E1,-1.300628922E0,-1.037120640E-2,-3.880380122E0,4.092565582E0
1.247427725E1,-1.134268474E0,1.366744559E0,-3.584537323E0,4.000432911E0
1.248423125E1,-9.740453363E-1,2.655032347E0,-2.883390677E0,4.038799683E0
1.249418508E1,-1.166336870E0,3.719898611E0,-2.187554473E0,4.470277613E0
1.250413908E1,-1.557888431E0,5.117436361E0,-1.250956971E0,5.493638559E0
1.251409308E1,-2.077807497E0,6.211419420E0,2.199032557E-1,6.553424498E0
1.252404808E1,-1.302316428E0,5.365315036E0,1.759718381E0,5.794759899E0
1.253400208E1,-7.118142327E-1,3.712462122E0,2.939718075E0,4.788632046E0
1.254395608E1,1.146650538E0,3.024849442E0,4.058447134E0,5.189943617E0
1.255391008E1,5.628091831E0,2.650163371E0,8.105792745E0,1.021776197E1
1.256386408E1,9.138005233E0,2.398432551E0,3.577942833E0,1.010234098E1
1.257381808E1,8.367899449E0,-2.392160243E-1,-9.312275648E-1,8.422953774E0
1.258377208E1,6.732249044E0,-5.180685108E0,-4.601013198E-1,8.507312655E0
1.259372608E1,2.393859297E0,-8.792840000E0,1.566537193E0,9.246547268E0
1.260368008E1,-3.069510767E0,-1.377138335E1,1.417963478E1,2.000337318E1
1.261363408E1,-4.832274963E0,-2.128998818E1,1.219001791E1,2.500421994E1
1.262358908E1,-7.698609020E0,-2.775898973E1,1.567093264E0,2.884936521E1
1.263354308E1,-9.206154531E0,-2.849470511E1,-6.868497940E0,3.072259372E1
1.264349708E1,-7.324885401E0,-2.033300012E1,-6.156615222E0,2.247195477E1
1.265345108E1,-8.939745884E-1,-1.133433404E1,-2.862781581E0,1.172441201E1
1.266340508E1,4.064450178E0,-6.333215168E0,-4.206532549E0,8.621153385E0
1.267335908E1,4.890398625E0,-3.101450306E0,-3.525221997E0,6.779541492E0
1.268331308E1,3.920686734E0,-1.128089867E0,-2.454005073E0,4.760936054E0
1.269326708E1,2.636114266E0,5.536997473E-1,-2.585784942E0,3.733894160E0
1.270322108E1,7.062599625E-1,2.536706922E0,-2.532747188E0,3.653559013E0
1.271317508E1,-9.178476005E-1,4.644584895E0,-2.453110449E0,5.332200666E0
1.272313008E1,-1.654407396E0,7.402102561E0,-3.213036815E0,8.237219903E0
1.273308408E1,-2.719879138E0,1.025199805E1,-4.363401650E0,1.146910984E1
1.274303808E1,-4.039311537E0,1.271148781E1,-4.502940774E0,1.407744422E1
1.275299208E1,-4.888073188E0,1.350296575E1,-3.123980212E0,1.469634635E1
1.276294608E1,-4.665343973E0,1.100971767E1,-8.042716491E-1,1.198441365E1
1.277290008E1,-3.521710745E0,7.159116837E0,8.159228110E-1,8.020045541E0
1.278285408E1,-3.654902716E0,5.759930171E0,1.189005575E0,6.924510358E0
1.279280808E1,-3.384747904E0,5.955172210E0,1.363299379E0,6.984209306E0
1.280276208E1,-2.183517847E0,7.235397858E0,1.907751170E0,7.794757654E0
1.281271708E1,1.324469445E-1,9.115415100E0,1.730216839E0,9.279115526E0
1.282267108E1,2.514594507E0,1.051225411E1,1.548949646E0,1.091924526E1
1.283262508E1,3.459411293E0,1.104831631E1,1.353290116E0,1.165608056E1
1.284257908E1,3.214835126E0,1.046759658E1,9.146787751E-1,1.098828378E1
1.285253308E1,2.236353142E0,9.315581664E0,4.693782564E-1,9.591749218E0
1.286248708E1,1.183702589E0,8.834421304E0,2.477816470E-1,8.916812623E0
1.287244108E1,-8.001528156E-2,9.048249303E0,-1.924833226E-1,9.050650127E0
1.288239508E1,-1.205097332E0,9.403445435E0,-6.551278889E-1,9.502959443E0
1.289234908E1,-1.835028034E0,9.663842413E0,-7.932731096E-1,9.868457848E0
1.290230308E1,-2.241673523E0,9.680799923E0,-1.039847928E0,9.991209689E0
1.291225808E1,-2.141802495E0,9.481362507E0,-1.263977405E0,9.802101397E0
1.292221208E1,-1.977990848E0,9.187607163E0,-1.297878392E0,9.487310552E0
1.293216608E1,-1.572557340E0,9.139409734E0,-1.715245775E0,9.431002860E0
1.294212008E1,-4.685387059E-1,9.356069539E0,-1.956227073E0,9.569868866E0
1.295207408E1,1.721098107E0,9.251334212E0,5.724704790E-1,9.427464444E0
1.296202808E1,3.954178123E0,6.779997407E0,-1.818180013E-1,7.850920154E0
1.297198208E1,6.693355705E0,-1.289744330E0,3.537578626E-1,6.825657159E0
1.298193608E1,1.209425222E1,-1.568388363E1,-7.087872022E0,2.103551930E1
1.299189008E1,1.637283299E1,-4.040641193E1,-4.296004011E0,4.380871415E1
1.300184408E1,-2.315642556E0,-5.258364082E1,1.300663713E0,5.265067149E1
1.301179908E1,-2.106227187E1,-3.620769010E1,-2.649716059E0,4.197186098E1
1.302175308E1,-1.239730873E1,-2.834555901E1,-2.601832625E-1,3.093916086E1
1.303170708E1,-6.784878663E0,-2.669274528E1,-3.975158518E0,2.782694942E1
1.304166108E1,1.989482235E-2,-2.402024028E1,-2.548154601E0,2.415502910E1
1.305161508E1,4.860843289E0,-1.777224711E1,-2.155468462E0,1.855064983E1
1.306156908E1,7.590566508E0,-1.190806518E1,-3.405883834E0,1.452648481E1
1.307152308E1,7.539063063E0,-6.909352435E0,-2.560843059E0,1.054203681E1
1.308147708E1,3.975082796E0,-3.495571936E0,-9.342480902E-1,5.375232636E0
1.309143108E1,-2.400974555E-1,1.085494655E-1,9.587119634E-1,9.942627437E-1
1.310138508E1,-2.150927514E0,4.175730586E0,1.616075828E0,4.967385246E0
1.311134008E1,-2.744519305E0,8.278422432E0,2.210163317E0,8.997193233E0
1.312129408E1,-3.596352791E0,1.070423691E1,1.444816582E0,1.138428461E1
1.313124808E1,-3.103996768E0,1.172268973E1,2.483999535E-2,1.212670060E1
1.314120208E1,-1.629552490E0,1.250339593E1,-7.368988609E-1,1.263065204E1
1.315115608E1,-5.280643845E-1,1.241831894E1,-2.536670669E0,1.268574773E1
1.316111008E1,-3.853975850E-1,1.148048870E1,-3.812063009E0,1.210297387E1
1.317106408E1,-6.697578052E-2,9.499055012E0,-3.232381743E0,1.003418276E1
1.318101808E1,-2.989376212E-1,8.412542356E0,-1.195207132E0,8.502279264E0
1.319097208E1,-7.974377158E-1,8.346668209E0,1.168548360E0,8.465712160E0
1.320092608E1,-5.697492214E-1,8.460332235E0,3.356750851E0,9.119737494E0
1.321088108E1,1.811919107E-1,8.693373014E0,4.373966399E0,9.733403667E0
1.322083508E1,7.516662964E-1,9.122072740E0,3.673567028E0,9.862672457E0
1.323078908E1,1.142664783E0,9.210285589E0,1.499849406E0,9.401307977E0
1.324074308E1,1.070356214E0,9.258061434E0,-4.170959258E-1,9.329058524E0
1.325069708E1,8.221617170E-1,9.389901529E0,-8.163520698E-1,9.461111526E0
1.326065108E1,3.757941911E-1,9.321883208E0,-4.910107251E-1,9.342366903E0
1.327060508E1,-1.099793564E-1,9.362552347E0,-3.876062246E-1,9.371217664E0
1.328055908E1,-6.527542117E-1,9.513757251E0,-6.040512908E-1,9.555236421E0
1.329051308E1,-1.279479835E0,9.632763877E0,-7.806756489E-1,9.748674937E0
1.330046808E1,-1.979649704E0,9.641322446E0,-8.358067064E-1,9.877888657E0
1.331042208E1,-2.529592322E0,9.554175544E0,-8.659774621E-1,9.921241082E0
1.332037608E1,-2.919416542E0,9.548123091E0,-8.007585689E-1,1.001652943E1
1.333033008E1,-3.051198750E0,9.719617249E0,-7.698793499E-1,1.021633435E1
1.334028408E1,-2.885514970E0,1.000091510E1,-8.756015405E-1,1.044562959E1
1.335023808E1,-2.407099879E0,1.013359544E1,-1.347460295E0,1.050235857E1
1.336019208E1,-1.659976284E0,9.845863312E0,-2.304987759E0,1.024741500E1
1.337014608E1,-7.932139065E-1,9.146688933E0,-1.606434792E0,9.320501031E0
1.338010008E1,-2.608387719E-1,7.808088777E0,-9.103880882E-2,7.812974804E0
1.339005408E1,-2.350108895E-1,5.900930514E0,1.197485353E0,6.025793079E0
1.340000908E1,2.834853525E0,-3.192316622E-1,3.226077275E0,4.306492534E0
1.340996308E1,4.504875618E0,-1.322596326E1,-1.937085190E0,1.410575442E1
1.341991708E1,5.810753585E0,-3.629630582E1,-1.331591391E0,3.678260199E1
1.342987108E1,2.334892320E0,-5.096178224E1,-6.165957903E0,5.138651582E1
1.343982508E1,-1.224732794E0,-4.620807544E1,6.019967254E-1,4.622822305E1
1.344977908E1,2.895139195E0,-2.883299928E1,8.978260471E0,3.033698798E1
1.345973308E1,6.455507344E-1,-2.541340724E1,-6.032215708E0,2.612748800E1
1.346968708E1,-3.287361065E0,-2.909925342E1,-5.916051414E0,2.987595951E1
1.347964108E1,3.858636958E0,-2.126031707E1,-1.165547423E-1,2.160795562E1
1.348959513E1,9.799559212E0,-1.372142591E1,-1.592576891E0,1.693650469E1
1.349954913E1,1.062390084E1,-8.756910029E0,-2.665721058E0,1.402343792E1
1.350950413E1,6.787192991E0,-4.159253132E0,-1.159960116E0,8.044307477E0
1.351945812E1,1.433294936E0,-1.277622467E0,2.071070628E-1,1.931203479E0
1.352941213E1,-2.742649366E0,1.138513114E0,7.916216366E-1,3.073272274E0
1.353936613E1,-5.849210138E0,4.883985107E0,1.256758432E0,7.723083032E0
1.354932012E1,-7.625770839E0,9.201056344E0,1.362335612E0,1.202779186E1
1.355927413E1,-6.369390137E0,1.283844256E1,7.832802180E-1,1.435298805E1
1.356922813E1,-4.343494220E0,1.439388729E1,5.356385753E-2,1.503505246E1
1.357918213E1,-3.287592323E0,1.316259933E1,-1.390664495E0,1.363804356E1
1.358913612E1,-3.266185666E0,1.129467237E1,-2.787240232E0,1.208330671E1
1.359909013E1,-3.171022524E0,8.759269965E0,-3.796185479E0,1.005938459E1
1.360904513E1,-2.694805693E0,6.693085563E0,-4.419936039E0,8.461395078E0
1.361899912E1,-2.473344739E0,6.643408204E0,-3.971596102E0,8.125631197E0
1.362895313E1,-2.257957288E0,6.778582381E0,-2.448533249E0,7.552672724E0
1.363890713E1,-1.712169847E0,7.192412052E0,-5.522037372E-1,7.413989862E0
1.364886113E1,-9.638650415E-1,8.263323752E0,2.398549057E0,8.658209562E0
1.365881512E1,5.505855203E-2,9.492694411E0,4.262155942E0,1.040577973E1
1.366876913E1,1.174720462E0,1.056852420E1,4.657327148E0,1.160880563E1
1.367872313E1,1.905271366E0,1.122788197E1,4.449910036E0,1.222690033E1
1.368867712E1,2.377387252E0,1.111520378E1,3.722207676E0,1.196054160E1
1.369863213E1,2.178705881E0,1.033212244E1,2.860712836E0,1.093998133E1
1.370858613E1,1.640309467E0,1.011219112E1,2.370085980E0,1.051495754E1
1.371854012E1,1.054527217E0,1.059662826E1,1.807331381E0,1.080125015E1
1.372849412E1,3.258774613E-1,1.068392953E1,9.444352555E-1,1.073054073E1
1.373844813E1,9.992628425E-2,1.036871549E1,3.794525747E-1,1.037613755E1
1.374840213E1,4.637544409E-1,9.900842342E0,1.819725139E-1,9.913367806E0
1.375835612E1,1.032160228E0,9.237980341E0,1.204185824E-1,9.296243121E0
1.376831013E1,1.887534422E0,9.077400012E0,6.565989022E-1,9.294788824E0
1.377826413E1,2.766064541E0,9.137533363E0,1.415569979E0,9.651397171E0
1.378821813E1,2.765700844E0,9.262853812E0,1.442204192E0,9.773920136E0
1.379817313E1,2.488997735E0,8.135283177E0,-1.272465223E0,8.602157279E0
1.380812713E1,1.435527111E0,5.946351686E0,-3.962597237E0,7.288484981E0
1.381808113E1,2.156051721E0,-4.334225214E-1,7.482624860E-1,2.322996094E0
1.382803512E1,1.267977193E0,-1.020459818E1,-1.716534355E0,1.042535756E1
1.383798913E1,-1.874575384E0,-2.411631237E1,-4.757667415E-1,2.419373698E1
1.384794313E1,4.174137512E0,-3.915743731E1,2.348701397E0,3.944926766E1
1.385789712E1,4.466668741E0,-3.527673150E1,-5.369763597E0,3.596155275E1
1.386785113E1,-6.185751312E0,-2.586950877E1,3.877911720E0,2.687997772E1
1.387780513E1,-1.127332887E1,-2.341663688E1,1.000127646E0,2.600821182E1
1.388775913E1,-8.722895021E0,-2.904965266E1,-5.579582745E0,3.083995721E1
1.389771412E1,-1.785563951E0,-2.635880611E1,-6.011067499E0,2.709442435E1
1.390766813E1,5.845508265E0,-1.968349375E1,-2.516217109E0,2.068674072E1
1.391762213E1,1.041178374E1,-1.442622239E1,-1.443604893E0,1.784951339E1
1.392757612E1,1.319591910E1,-1.126266238E1,-1.046286589E0,1.738029230E1
1.393753013E1,1.134750197E1,-7.174713700E0,-8.405300872E-1,1.345172139E1
1.394748413E1,7.108132625E0,-2.762253910E0,-5.474176450E-1,7.645604106E0
1.395743813E1,2.728985007E0,1.008480978E-1,-2.231810586E-1,2.739952426E0
1.396739212E1,-2.325524496E0,1.912627164E0,3.312308796E-1,3.029178229E0
1.397734613E1,-6.825547217E0,5.118084818E0,1.314913816E0,8.632026724E0
1.398730013E1,-9.277409286E0,9.311807871E0,1.293557446E0,1.320808009E1
1.399725512E1,-9.642916397E0,1.286094147E1,2.248598381E0,1.623101497E1
1.400720913E1,-7.062843601E0,1.324831015E1,1.607221828E0,1.509916036E1
1.401716313E1,-4.761879457E0,1.103158158E1,2.816136003E-1,1.201876010E1
1.402711713E1,-3.864078085E0,8.155199379E0,-1.027623666E0,9.082642058E0
1.403707112E1,-2.970511267E0,6.825529091E0,-2.663638279E0,7.906121264E0
1.404702513E1,-2.449029678E0,6.868865730E0,-4.663366152E0,8.655983286E0
1.405697913E1,-2.645431804E0,6.961155258E0,-6.138651406E0,9.650856596E0
1.406693312E1,-2.413104385E0,7.381059601E0,-5.993675541E0,9.809549434E0
1.407688713E1,-3.094956388E0,7.989178800E0,-5.405283093E0,1.013029211E1
1.408684113E1,-3.104737025E0,8.439443057E0,-3.509300029E0,9.652915508E0
1.409679613E1,-2.359174637E0,8.591243792E0,-9.400613920E-1,8.958732627E0
1.410675012E1,-1.724466395E0,9.285612929E0,1.934164359E0,9.640403705E0
1.411670413E1,-5.410382048E-2,9.983706744E0,4.627947228E0,1.100432747E1
1.412665813E1,1.488232743E0,1.061939849E1,6.104865024E0,1.233919924E1
1.413661212E1,1.895540138E0,1.104941442E1,5.483566786E0,1.248006956E1
1.414656613E1,1.378573768E0,1.128274522E1,4.364852929E0,1.217590845E1
1.415652013E1,8.393128431E-1,1.111614635E1,3.548827499E0,1.169903126E1
1.416647413E1,7.849219700E-1,1.058484378E1,2.442228927E0,1.089125808E1
1.417642812E1,7.320311270E-1,1.012089646E1,1.615475757E0,1.027512416E1
1.418638213E1,5.896816486E-1,9.858457046E0,9.819499679E-1,9.924773323E0
1.419633713E1,3.514096573E-1,9.543194473E0,3.234891661E-1,9.555139703E0
1.420629112E1,2.215897023E-1,9.277530323E0,-1.047809350E-1,9.280767745E0
1.421624513E1,7.109177814E-1,9.259416234E0,-4.590298176E-1,9.298005241E0
1.422619913E1,2.181522777E0,9.273485219E0,3.775044286E-1,9.534100867E0
1.423615312E1,3.829227510E0,9.123916951E0,1.304468350E0,9.980505074E0
1.424610712E1,3.647555104E0,8.287459888E0,-6.918972275E-1,9.081044621E0
1.425606113E1,2.070053212E0,6.094992000E0,-2.110116141E0,6.773967664E0
1.426601513E1,-2.772055306E-2,-6.293942928E-3,6.132147548E-1,6.138732591E-1
1.427596912E1,-9.947009911E-1,-9.352454206E0,-9.063299744E-1,9.448770489E0
1.428592313E1,-1.689693442E0,-2.360144632E1,-3.354754611E0,2.389848763E1
1.429587813E1,3.602032484E0,-4.721846962E1,-8.703433149E0,4.814881370E1
1.430583212E1,4.451009605E0,-4.951794097E1,-9.272080718E0,5.057479061E1
1.431578613E1,-2.385635042E0,-2.721258614E1,-1.443251283E0,2.735505571E1
1.432574013E1,-9.836234118E0,-2.503955498E1,-6.578346820E0,2.769486346E1
1.433569413E1,-7.977297843E0,-3.061730053E1,-3.240887688E0,3.180502673E1
1.434564812E1,1.148419686E0,-2.504664180E1,1.103515774E-2,2.507295864E1
1.435560213E1,6.014907950E0,-1.656233657E1,-2.139291847E0,1.775011774E1
1.436555613E1,7.780196389E0,-9.931915616E0,5.275897367E-1,1.262746034E1
1.437551012E1,4.545291865E0,-5.650503039E0,1.200574876E0,7.350458677E0
1.438546412E1,-1.323048170E0,-4.551028275E0,1.330516380E0,4.922660730E0
1.439541913E1,-5.261621683E0,-4.202311444E0,2.676924030E-1,6.739120375E0
1.440537313E1,-6.644481753E0,-3.205033731E0,-1.367056654E0,7.502681046E0
1.441532712E1,-5.817973727E0,1.804643708E0,-1.469994693E0,6.266294088E0
1.442528113E1,-5.262829717E0,6.415932219E0,-3.021015130E-2,8.298341734E0
1.443523513E1,-4.323131876E0,8.170620825E0,6.220186881E-1,9.264740748E0
1.444518912E1,-1.860866587E0,1.021387771E1,7.720667202E-2,1.038229662E1
1.445514313E1,1.568446163E0,1.273247113E1,-2.310754137E0,1.303516126E1
1.446509713E1,3.928342493E0,1.339224054E1,-5.554762484E0,1.502129713E1
1.447505113E1,2.523682249E0,1.105222693E1,-6.085786729E0,1.286691464E1
1.448500512E1,1.894990792E0,8.060110788E0,-6.946931906E0,1.080815613E1
1.449495921E1,1.556407769E0,6.400046504E0,-6.492113253E0,9.248271994E0
1.450491421E1,-9.378440548E-2,6.700591634E0,-4.269101264E0,7.945561614E0
1.451486821E1,-2.067473567E0,7.373497397E0,-2.265508382E0,7.985952607E0
1.452482221E1,-4.079587450E0,7.649184260E0,-1.471755874E0,8.793129077E0
1.453477621E1,-4.921530663E0,7.785520864E0,-1.185459897E0,9.286609411E0
1.454473021E1,-3.845668711E0,8.574627759E0,-1.147492683E-1,9.398221983E0
1.455468421E1,-2.665379580E0,9.728026714E0,1.560675652E0,1.020658908E1
1.456463821E1,-1.974244245E0,1.025458486E1,2.565955864E0,1.075352409E1
1.457459221E1,-1.238834816E0,1.013740198E1,2.855480747E0,1.060449908E1
1.458454621E1,-7.517757124E-1,1.005089359E1,2.163681461E0,1.030859574E1
1.459450021E1,-4.165443506E-1,9.938320656E0,1.479865816E0,1.005652671E1
1.460445521E1,-2.473913454E-1,9.671648446E0,1.109744301E0,9.738250282E0
1.461440921E1,-1.662263276E-1,9.520699650E0,7.454395234E-1,9.551284369E0
1.462436321E1,-2.200926324E-1,9.535701267E0,5.037085386E-1,9.551531903E0
1.463431721E1,-4.034703054E-1,9.752234187E0,3.560194194E-1,9.767067613E0
1.464427121E1,-4.912016366E-1,9.987072401E0,2.560193141E-1,1.000242171E1
1.465422521E1,-3.353833894E-1,1.010406817E1,1.682925144E-1,1.011103348E1
1.466417921E1,4.759436198E-2,9.990351520E0,2.461126690E-1,9.993495893E0
1.467413321E1,1.025867893E0,9.951294458E0,6.440018070E-1,1.002473963E1
1.468408721E1,2.512595928E0,9.808852192E0,1.890326614E0,1.030048806E1
1.469404121E1,3.485006602E0,9.681114503E0,3.593973852E0,1.089889431E1
1.470399621E1,2.988618047E0,9.269196872E0,2.098232699E0,9.962551326E0
1.471395021E1,1.359707727E0,7.709299484E0,-1.216508246E0,7.922246900E0
1.472390421E1,2.984949504E-1,2.210503040E0,-5.828843701E-1,2.305466789E0
1.473385821E1,2.303837685E-2,-6.715327202E0,-2.742321629E0,7.253721673E0
1.474381221E1,-1.412142487E0,-2.359963135E1,-3.954663734E0,2.397031730E1
1.475376621E1,6.160217106E-2,-4.681867444E1,-9.988295639E-1,4.682936826E1
1.476372021E1,-2.139056789E0,-4.879987015E1,-1.192013617E1,5.028014058E1
1.477367421E1,2.423324002E0,-2.726854633E1,4.546190289E0,2.775092727E1
1.478362821E1,-2.651268787E0,-2.282650080E1,3.104643762E0,2.318872954E1
1.479358221E1,-1.410302105E1,-2.318498189E1,-4.114113797E0,2.744748660E1
1.480353721E1,-5.963993320E0,-2.771338378E1,-3.573765582E0,2.857223578E1
1.481349121E1,7.382742430E0,-2.285709577E1,-4.550317254E0,2.444702640E1
1.482344521E1,9.783258929E0,-1.547615311E1,-5.627020036E0,1.915428999E1
1.483339921E1,1.045018007E1,-9.543515486E0,-3.073784497E0,1.448216498E1
1.484335321E1,7.857089614E0,-5.102832355E0,-7.611390781E-1,9.399579136E0
1.485330721E1,2.639546582E0,-1.440434094E0,7.150315900E-1,3.090845630E0
1.486326121E1,-1.831694098E0,1.348821089E0,1.825873925E0,2.916888271E0
1.487321521E1,-4.635522003E0,4.298998663E0,2.383228182E0,6.756421414E0
1.488316921E1,-6.734075714E0,8.390476134E0,3.138015869E0,1.120691791E1
1.489312321E1,-8.158680226E0,1.120183496E1,3.734858712E0,1.435250289E1
1.490307821E1,-6.948821726E0,1.197971462E1,2.165522018E0,1.401745952E1
1.491303221E1,-3.623734717E0,1.241242261E1,4.824058163E-1,1.293956737E1
1.492298621E1,-1.267524326E0,1.146918720E1,-8.460523438E-1,1.156999039E1
1.493294021E1,-7.461569037E-1,9.177884413E0,-2.587337962E0,9.564759806E0
1.494289421E1,-8.337409582E-1,7.905169514E0,-3.995284342E0,8.896579455E0
1.495284821E1,-1.270711643E0,7.607007124E0,-5.332116884E0,9.376179175E0
1.496280221E1,-1.717902749E0,7.365156929E0,-5.915959028E0,9.601838244E0
1.497275621E1,-1.831444714E0,7.603259059E0,-5.254975737E0,9.422234770E0
1.498271021E1,-1.838623779E0,7.896870561E0,-3.552910903E0,8.852360021E0
1.499266421E1,-1.502330526E0,7.897980362E0,-1.780737952E0,8.234447065E0
1.500261821E1,-8.639593687E-1,8.353579618E0,-3.477245593E-1,8.405333462E0
1.501257321E1,-2.566661623E-1,9.195506752E0,1.386198245E0,9.302944024E0
1.502252721E1,3.170053713E-1,9.842314053E0,3.338523910E0,1.039795077E1
1.503248121E1,5.482442586E-1,1.052894791E1,3.951441919E0,1.125936095E1
1.504243521E1,2.589690151E-1,1.130126803E1,3.585989771E0,1.185938644E1
1.505238921E1,8.098916274E-2,1.127710617E1,3.537822747E0,1.181930085E1
1.506234321E1,1.407154374E-1,1.100441659E1,3.149102190E0,1.144700091E1
1.507229721E1,2.922960247E-1,1.044974620E1,2.666273035E0,1.078849594E1
1.508225121E1,3.238682849E-1,9.717892320E0,2.222215451E0,9.973994352E0
1.509220521E1,5.212579331E-1,9.143913260E0,1.502438554E0,9.281173478E0
1.510216021E1,1.239472163E0,9.041844263E0,9.715454324E-1,9.177970334E0
1.511211421E1,2.229178462E0,9.360252637E0,9.204757047E-1,9.665963044E0
1.512206821E1,3.454925309E0,9.780520678E0,7.147224185E-1,1.039739976E1
1.513202221E1,4.310367404E0,9.921630363E0,1.365886188E-1,1.081834889E1
1.514197621E1,3.965554174E0,9.324508608E0,2.687052870E-1,1.013628547E1
1.515193021E1,2.695317909E0,7.712602576E0,-1.001980044E0,8.231217476E0
1.516188421E1,2.445766639E0,3.829300016E0,-8.906701076E-1,4.630184262E0
1.517183821E1,3.314895312E0,-4.182755431E0,1.633320290E0,5.581371614E0
1.518179221E1,1.876089375E0,-1.476806816E1,-6.186283994E-1,1.489960569E1
1.519174621E1,4.271488390E0,-3.259261394E1,5.669951463E-1,3.287621602E1
1.520170021E1,5.507297126E0,-4.604504103E1,-1.174532313E1,4.783752440E1
1.521165521E1,4.078620028E0,-3.766299658E1,-4.827926973E0,3.818959717E1
1.522160921E1,-3.431427981E0,-2.358075186E1,-1.326181985E0,2.386598656E1
1.523156321E1,-5.775399565E0,-1.964998218E1,-3.038500936E0,2.070530193E1
1.524151721E1,-7.668865403E0,-2.592170803E1,-3.768694210E0,2.729376302E1
1.525147121E1,-5.996888001E0,-2.522073680E1,-4.851081655E0,2.637387389E1
1.526142521E1,8.805926507E-1,-1.840543741E1,-3.808187474E0,1.881589386E1
1.527137921E1,5.043580180E0,-1.259698646E1,-1.611958365E0,1.366455922E1
1.528133321E1,5.551855248E0,-8.453082272E0,-1.246614683E-1,1.011401192E1
1.529128721E1,3.182371677E0,-4.924715642E0,9.879783010E-1,5.946126030E0
1.530124121E1,1.601543962E-1,-1.121930995E0,1.296703248E0,1.722155016E0
1.531119521E1,-2.037782575E0,2.208621991E0,2.574529783E-1,3.016098632E0
1.532115021E1,-3.743651755E0,5.710112479E0,-9.768090228E-1,6.897424798E0
1.533110421E1,-5.694069473E0,9.194170663E0,-6.693646896E-1,1.083527805E1
1.534105821E1,-6.136641133E0,1.100681044E1,7.263154006E-1,1.262282752E1
1.535101221E1,-5.267792834E0,1.082543916E1,6.206515360E-1,1.205508120E1
1.536096621E1,-2.640525113E0,1.127339903E1,-7.285443592E-1,1.160140834E1
1.537092021E1,-5.247832194E-2,1.076047660E1,-2.622755717E0,1.107562450E1
1.538087421E1,1.056427415E-1,8.963455321E0,-3.720990286E0,9.705692164E0
1.539082821E1,-7.057767633E-1,7.425261628E0,-5.667550596E0,9.367697734E0
1.540078221E1,-1.124899919E0,6.786396015E0,-7.122850066E0,9.902300933E0
1.541073721E1,-2.102826564E0,7.233910326E0,-5.981864165E0,9.619461370E0
1.542069121E1,-2.904444454E0,7.860868669E0,-4.358755453E0,9.446046947E0
1.543064521E1,-4.057101983E0,7.924224420E0,-3.968947313E0,9.747099668E0
1.544059921E1,-4.477333478E0,8.002964196E0,-2.837288890E0,9.599174925E0
1.545055321E1,-4.269605879E0,8.526339698E0,-5.307318842E-1,9.550375874E0
1.546050721E1,-3.637511635E0,9.614396603E0,3.174403092E0,1.075848260E1
1.547046121E1,-2.177235160E0,1.046987232E1,6.269546006E0,1.239620048E1
1.548041521E1,-9.679784846E-1,1.083180327E1,5.910436918E0,1.237732641E1
1.549036883E1,-2.009884450E-1,1.074038674E1,4.047083656E0,1.147933751E1
1.550032283E1,1.943331989E-1,1.018064214E1,2.782284132E0,1.055577305E1
1.551027683E1,3.151695284E-1,9.671424497E0,2.077750779E0,9.897112303E0
1.552023183E1,2.386623660E-1,9.317570887E0,1.460978286E0,9.434433979E0
1.553018583E1,3.479919963E-1,9.149970975E0,6.771251142E-1,9.181588408E0
1.554013983E1,5.201996601E-1,9.003591194E0,-3.027564012E-2,9.018657255E0
1.555009383E1,1.154243293E0,8.990930802E0,-5.438236539E-1,9.081016377E0
1.556004783E1,2.359269216E0,9.469909565E0,-6.825431442E-1,9.783210289E0
1.557000183E1,3.782585148E0,1.015140255E1,-7.645864503E-1,1.086018032E1
1.557995583E1,5.100891080E0,1.014497997E1,-1.055588413E0,1.140412098E1
1.558990983E1,4.037596841E0,8.369808565E0,-2.922357692E0,9.741460781E0
1.559986383E1,2.087390791E0,4.377845442E0,-3.436591072E0,5.944147477E0
1.560981783E1,1.247874319E0,-3.579985850E0,-3.975404978E-2,3.791446872E0
1.561977283E1,-1.219657411E0,-1.548813055E1,-2.443087152E0,1.572699675E1
1.562972683E1,-2.624096484E0,-3.351195762E1,4.010960727E0,3.385299088E1
1.563968083E1,-5.107728814E0,-4.408214009E1,1.324055207E0,4.439681397E1
1.564963483E1,-6.627948750E0,-3.748820927E1,-1.176738263E0,3.808779663E1
1.565958883E1,-9.833395587E-1,-2.472459120E1,-3.304692797E-1,2.474634471E1
1.566954283E1,-9.823746950E-1,-2.360454067E1,-6.470899554E0,2.449514118E1
1.567949683E1,8.092083802E-1,-2.698615388E1,-5.430568793E0,2.753903406E1
1.568945083E1,4.301631079E0,-2.084824273E1,-2.028058802E0,2.138378539E1
1.569940483E1,6.476477214E0,-1.437032769E1,-2.180973870E0,1.591250206E1
1.570935883E1,6.170399448E0,-1.102576711E1,-1.580940786E0,1.273344979E1
1.571931283E1,2.897257934E0,-7.884311326E0,2.055530190E-1,8.402304485E0
1.572926783E1,-9.669552219E-1,-4.173205758E0,1.955974327E0,4.709191467E0
1.573922183E1,-3.824373736E0,-1.161209666E0,2.266192507E0,4.594547947E0
1.574917583E1,-5.518196336E0,1.114023221E0,3.110134736E-1,5.638108541E0
1.575912983E1,-6.818516525E0,4.673004118E0,-9.242424810E-1,8.317653470E0
1.576908383E1,-6.393507562E0,8.781102884E0,-8.689745986E-1,1.089678043E1
1.577903783E1,-4.837440101E0,1.031477025E1,-5.046088636E-1,1.140394415E1
1.578899183E1,-3.054768475E0,1.157065744E1,-5.253208709E-1,1.197863457E1
1.579894583E1,-9.006684078E-1,1.297682510E1,-9.386997217E-1,1.304186913E1
1.580889983E1,-4.756563753E-3,1.268165532E1,-2.059284103E0,1.284776460E1
1.581885383E1,-1.565964751E-1,1.095277515E1,-3.587107759E0,1.152628075E1
1.582880883E1,-7.155283110E-1,8.626638742E0,-4.357963155E0,9.691373464E0
1.583876283E1,-1.623425924E0,7.425120710E0,-4.416389118E0,8.790473374E0
1.584871683E1,-1.903079537E0,7.253607257E0,-3.640306896E0,8.335968106E0
1.585867083E1,-1.962279526E0,6.874928123E0,-2.750435518E0,7.660291977E0
1.586862483E1,-2.305080730E0,6.452429954E0,-2.568424559E0,7.317380283E0
1.587857883E1,-2.393184967E0,6.850877940E0,-1.589338703E0,7.428853233E0
1.588853283E1,-1.985830357E0,8.351607937E0,-4.455578327E-1,8.596010652E0
1.589848683E1,-1.640896527E0,9.855358021E0,9.747133076E-1,1.003846050E1
1.590844083E1,-1.158109034E0,1.051048006E1,2.493693634E0,1.086415738E1
1.591839483E1,-1.045319752E0,1.084407541E1,2.718907331E0,1.122849598E1
1.592834983E1,-7.771312129E-1,1.078628387E1,2.360239123E0,1.106881120E1
1.593830383E1,-8.108803184E-1,1.048325894E1,1.958009158E0,1.069532817E1
1.594825783E1,-6.884956098E-1,1.008433966E1,1.465305226E0,1.021347405E1
1.595821183E1,-3.993092074E-1,9.695530229E0,9.422600913E-1,9.749390152E0
1.596816583E1,-1.187623403E-1,9.432625380E0,2.948084636E-1,9.437978495E0
1.597811983E1,-3.346708696E-2,9.434904040E0,-3.409487693E-1,9.441121774E0
1.598807383E1,-3.377830502E-2,9.655597839E0,-8.841959973E-1,9.696056578E0
1.599802783E1,1.382540702E-1,9.845331216E0,-1.338828782E0,9.936907137E0
1.600798183E1,4.280748406E-1,9.809398322E0,-1.910813942E0,1.000293724E1
1.601793583E1,1.750328776E0,9.148534899E0,-2.540147424E0,9.654620166E0
1.602789083E1,3.020323989E0,8.255462170E0,-2.669470292E0,9.187006274E0
1.603784483E1,1.762929526E0,6.835375802E0,-2.814031005E0,7.599279792E0
1.604779883E1,1.356826475E-1,2.411835539E0,-4.491094315E-1,2.457042883E0
1.605775283E1,-8.341373994E-1,-4.634551073E0,3.798760593E0,6.050242218E0
1.606770683E1,-2.884114855E0,-1.667488144E1,-5.482209063E-1,1.693134181E1
1.607766083E1,-8.615785287E-1,-3.619260896E1,6.280879079E0,3.674366208E1
1.608761483E1,-7.855953500E-1,-4.446497835E1,-2.088735505E0,4.452094199E1
1.609756883E1,4.008371580E0,-3.984410625E1,-1.668550232E1,4.338232167E1
1.610752283E1,3.168102717E0,-2.864768465E1,-8.347489743E0,3.000678749E1
1.611747683E1,-1.370396437E0,-1.848931221E1,-3.504483093E0,1.886833470E1
1.612743083E1,8.192180094E-1,-2.367078962E1,5.321621132E-1,2.369093911E1
1.613738583E1,2.985745018E0,-2.037774769E1,3.087181345E0,2.082541627E1
1.614733983E1,1.645417594E0,-1.579938368E1,2.910627007E0,1.614929328E1
1.615729383E1,4.712855816E-4,-1.339235280E1,1.789409519E0,1.351136930E1
1.616724783E1,-3.224956364E0,-1.086512071E1,8.877068118E-1,1.136834267E1
1.617720183E1,-5.293677873E0,-7.697366486E0,4.551940441E-1,9.353057140E0
1.618715583E1,-5.514328988E0,-4.514360386E0,-1.323742965E0,7.248418401E0
1.619710983E1,-4.226221293E0,-1.800948268E-1,-1.981086949E0,4.670983415E0
1.620706383E1,-2.083687311E0,3.389842583E0,-7.779217565E-1,4.054373911E0
1.621701783E1,2.108162806E-1,6.302631306E0,8.894176340E-1,6.368568804E0
1.622697183E1,1.779247643E0,9.421436732E0,1.265724553E0,9.671155615E0
1.623692683E1,2.035915559E0,1.203008487E1,3.319194989E-1,1.220565708E1
1.624688083E1,9.288052826E-1,1.371519863E1,-2.665406112E-1,1.374919622E1
1.625683483E1,-2.607967816E-1,1.354876816E1,-1.050542339E0,1.359193779E1
1.626678883E1,-1.141997762E0,1.150010494E1,-2.927759349E0,1.192175941E1
1.627674283E1,-1.785213996E0,9.203882303E0,-4.029427403E0,1.020464226E1
1.628669683E1,-1.645771936E0,8.815869843E0,-4.038502282E0,9.835528813E0
1.629665083E1,-1.537658380E0,8.956920472E0,-3.525970441E0,9.747988777E0
1.630660483E1,-1.825321217E0,8.733684304E0,-2.553035856E0,9.280465029E0
1.631655883E1,-1.837571426E0,8.112074994E0,-1.306969643E0,8.419655521E0
1.632651283E1,-2.118894128E0,7.910346639E0,5.622558318E-2,8.189411309E0
1.633646783E1,-2.173674060E0,8.536423221E0,1.534878906E0,8.941545369E0
1.634642183E1,-1.653747976E0,9.307531217E0,3.209397508E0,9.983248574E0
1.635637583E1,-8.609758269E-1,9.971453319E0,3.782136959E0,1.069933272E1
1.636632983E1,-1.451984428E-1,1.034017406E1,3.304873184E0,1.085644827E1
1.637628383E1,6.430416942E-2,1.032692895E1,2.638518641E0,1.065886378E1
1.638623783E1,-6.494451262E-2,1.002154758E1,1.851074109E0,1.019127613E1
1.639619183E1,-2.095373118E-1,9.701981462E0,9.039455529E-1,9.746254036E0
1.640614583E1,-2.876022089E-1,9.600814691E0,1.697856740E-1,9.606621931E0
1.641609983E1,-3.313366045E-1,9.839175267E0,-3.850496026E-1,9.852279791E0
1.642605383E1,-1.076519910E-1,1.018279391E1,-8.883382380E-1,1.022203628E1
1.643600783E1,3.856299753E-1,1.022753914E1,-1.247032174E0,1.031049740E1
1.644596283E1,9.623168450E-1,1.014002738E1,-1.337779791E0,1.027306496E1
1.645591683E1,1.349109356E0,1.009680125E1,-1.189707387E0,1.025577375E1
1.646587083E1,1.467653468E0,1.000284234E1,-8.876927054E-1,1.014883540E1
1.647582483E1,2.224129976E0,9.778893982E0,-6.569873035E-1,1.005013204E1
1.648577883E1,3.533381202E0,9.841764414E0,-6.478247166E-2,1.045702186E1
1.649573321E1,3.979315596E0,9.373880158E0,-7.667067969E-1,1.021236609E1
1.650568721E1,2.784620680E0,7.767101550E0,-4.199487823E0,9.258384135E0
