"Time (s)","Linear Acceleration x (m/s^2)","Linear Acceleration y (m/s^2)","Linear Acceleration z (m/s^2)","Absolute acceleration (m/s^2)"
6.007845833E0,-1.291940837E0,-1.905356297E0,-8.157382729E0,8.475988835E0
6.017870833E0,-1.373945697E0,-1.880985541E0,-8.183877633E0,8.508918056E0
6.027896833E0,-1.358093457E0,-1.837244421E0,-8.335633344E0,8.643070528E0
6.037921833E0,-1.302090287E0,-1.911726254E0,-8.518230194E0,8.826685790E0
6.047946833E0,-1.308615780E0,-1.959867257E0,-8.686461605E0,9.000453886E0
6.057972833E0,-1.173737983E0,-1.993695446E0,-8.910950832E0,9.206385128E0
6.067997833E0,-9.445690106E-1,-2.062957324E0,-9.074336071E0,9.353693317E0
6.078023833E0,-6.957435259E-1,-2.094898616E0,-8.954985044E0,9.223037266E0
6.088048833E0,-4.608720925E-1,-2.209825348E0,-8.556959227E0,8.849705214E0
6.098074833E0,-2.312319802E-1,-2.350357475E0,-8.169264271E0,8.503794872E0
6.108099833E0,-1.272384824E-1,-2.586553266E0,-7.929899143E0,8.342046982E0
6.118124833E0,-1.174893101E-1,-2.798471856E0,-7.805938756E0,8.293245947E0
6.128150833E0,-1.045981730E-1,-2.955399138E0,-7.872024572E0,8.409167361E0
6.138175833E0,-2.093153369E-1,-3.037172449E0,-7.988923861E0,8.549335287E0
6.148201833E0,-1.098061327E-1,-3.020728909E0,-7.822012167E0,8.385745934E0
6.158226833E0,2.543350236E-1,-2.802079881E0,-7.231210082E0,7.759300047E0
6.168252833E0,1.694541551E-1,-2.586594197E0,-6.424139956E0,6.927391891E0
6.178277833E0,1.632326994E-2,-2.367384713E0,-5.036947684E0,5.565574435E0
6.188302833E0,-5.453158268E-1,-1.930778967E0,-2.478262247E0,3.188582842E0
6.198328833E0,-1.639188555E0,-1.375780261E0,4.545572823E-1,2.187768902E0
6.208353833E0,-2.888799644E0,-3.242134899E-1,3.511306209E0,4.558459067E0
6.218379833E0,-4.971480503E0,3.189464057E0,3.655918377E0,6.946512690E0
6.228404833E0,-2.141384273E0,6.028375257E0,-9.483505511E-1,6.467318116E0
6.238430833E0,3.230729320E0,7.351898367E0,3.309348058E0,8.685609139E0
6.248455833E0,6.038103855E0,4.466408540E0,1.935497495E1,2.076108279E1
6.258480833E0,4.298866223E0,-6.530284461E-1,3.024057846E1,3.055158396E1
6.268506833E0,4.546342025E0,-5.250537993E-1,3.020462276E1,3.054937222E1
6.278531833E0,4.661055917E0,-3.964765969E-1,3.017646491E1,3.053689032E1
6.288557833E0,4.598184023E0,-3.115374573E-1,3.016016053E1,3.051025459E1
6.298582833E0,4.456093467E0,-3.089306223E-1,3.016230529E1,3.049125887E1
6.308608833E0,4.347048450E0,-3.681409898E-1,3.017738643E1,3.049109722E1
6.318633833E0,4.310292268E0,-4.369855222E-1,3.019282542E1,3.050207013E1
6.328658833E0,4.320544775E0,-4.836398712E-1,3.020218330E1,3.051348703E1
6.338684833E0,4.333782872E0,-5.125138606E-1,3.020782937E1,3.052142362E1
6.348709833E0,4.320891515E0,-5.386767885E-1,3.021400871E1,3.052616252E1
6.358735833E0,4.274010587E0,-5.629485807E-1,3.022133878E1,3.052725659E1
6.368760833E0,4.203268048E0,-5.776163211E-1,3.022804904E1,3.052435178E1
6.378786833E0,4.135409356E0,-5.849760653E-1,3.023350332E1,3.052062468E1
6.388811833E0,4.095376687E0,-5.963509463E-1,3.023852959E1,3.052042622E1
6.398836833E0,4.094683207E0,-6.192584369E-1,3.024374999E1,3.052596149E1
6.408862833E0,4.127050762E0,-6.534511998E-1,3.024956212E1,3.053679018E1
6.418887833E0,4.165862533E0,-6.968689688E-1,3.025741142E1,3.055079349E1
6.428913833E0,7.666873549E-1,-2.943883047E-1,7.609343671E0,7.653534156E0
6.438938833E0,3.942730371E-1,-9.467652248E-1,3.456593812E0,3.605531362E0
6.448963833E0,3.680634777E-1,-1.369971345E0,4.578972119E-1,1.490624723E0
6.458989833E0,7.002832311E-1,-1.934919819E0,-1.391378294E0,2.483997759E0
6.469014833E0,4.695675600E-1,-2.784479762E0,-3.318724653E0,4.357494069E0
6.479040833E0,3.733257160E-2,-3.402167929E0,-6.027782350E0,6.921726691E0
6.489065833E0,-8.619110160E-2,-3.588368711E0,-8.938294167E0,9.632077737E0
6.499091833E0,-2.101153456E-1,-3.607651658E0,-1.141764750E1,1.197589134E1
6.509116833E0,-2.549767007E-1,-3.503202553E0,-1.382981809E1,1.426889308E1
6.519141833E0,-3.957060800E-1,-3.084157165E0,-1.640039910E1,1.669256419E1
6.529167833E0,-5.768464621E-1,-2.788783897E0,-1.815823234E1,1.838019230E1
6.539192833E0,-5.693450692E-1,-2.885589815E0,-1.797947477E1,1.821846029E1
6.549218833E0,-4.801096147E-1,-3.120605199E0,-1.587971390E1,1.619055267E1
6.559243833E0,-3.350077423E-1,-3.464913231E0,-1.310043173E1,1.355504207E1
6.569269833E0,-3.453864039E-1,-3.882731580E0,-1.043832074E1,1.114241609E1
6.579294833E0,-3.450978073E-1,-4.218374915E0,-8.191918724E0,9.220700179E0
6.589319833E0,-2.250283768E-1,-4.296809465E0,-6.713309913E0,7.973815858E0
6.599345833E0,-5.907003433E-2,-4.251480095E0,-5.644751717E0,7.066950843E0
6.609370833E0,2.037973560E-1,-4.018366225E0,-4.855257152E0,6.305737268E0
6.619396833E0,2.893784103E-1,-3.531440511E0,-4.742763155E0,5.920187015E0
6.629421833E0,7.862166166E-3,-3.108384519E0,-5.413157539E0,6.242146319E0
6.639446833E0,-3.360766499E-1,-2.602724910E0,-6.528769448E0,7.036473192E0
6.649472833E0,-6.083828350E-1,-2.100918617E0,-7.818227264E0,8.118415256E0
6.659497833E0,-8.906598750E-1,-1.673615061E0,-8.753350829E0,8.956305774E0
6.669523833E0,-9.454759137E-1,-1.272708613E0,-9.221037449E0,9.356347768E0
6.679548833E0,-9.816492748E-1,-9.319735233E-1,-9.527814542E0,9.623484810E0
6.689574833E0,-1.097750712E0,-7.856602541E-1,-9.814268467E0,9.906673721E0
6.699599833E0,-1.101845371E0,-7.905644600E-1,-9.600852697E0,9.696155316E0
6.709624833E0,-1.011768721E0,-9.508812261E-1,-8.958540736E0,9.065500712E0
6.719650833E0,-8.970152868E-1,-1.129331816E0,-8.376201911E0,8.499457937E0
6.729675833E0,-8.444969845E-1,-1.229584375E0,-8.130655691E0,8.266354387E0
6.739701833E0,-9.779099804E-1,-1.350863960E0,-8.256691840E0,8.423425758E0
6.749726833E0,-1.284384334E0,-1.233550249E0,-8.682530522E0,8.863273978E0
6.759751833E0,-1.653774435E0,-9.694486208E-1,-9.341280177E0,9.535948608E0
6.769777833E0,-2.047354321E0,-7.365426193E-1,-9.780476823E0,1.001957492E1
6.779802833E0,-1.827936531E0,-9.057736118E-1,-9.727841942E0,9.939451024E0
6.789828833E0,-1.090747355E0,-1.476336875E0,-8.640593707E0,8.833411570E0
6.799853833E0,-1.679485519E-1,-2.273281232E0,-6.375916214E0,6.771138888E0
6.809879833E0,3.882057834E-1,-3.582634054E0,-3.406839269E0,4.959085027E0
6.819904833E0,5.535470254E-1,-4.929938375E0,-1.325836269E0,5.135031499E0
6.829929833E0,5.367073366E-1,-5.281048472E0,-1.191174307E0,5.440259549E0
6.839955833E0,7.191413055E-1,-5.150224623E0,-2.733401409E0,5.874815840E0
6.849980833E0,9.225233996E-1,-3.992340853E0,-4.885229394E0,6.376150966E0
6.860006833E0,7.950994143E-1,-2.177028607E0,-6.055630884E0,6.484003550E0
6.870031833E0,6.404945739E-1,-7.765312886E-1,-5.040847192E0,5.140367161E0
6.880057833E0,2.564510579E-1,5.284467924E-1,-2.953122232E0,3.010972281E0
6.890082833E0,-1.634447341E-1,3.251279652E0,-1.964740473E0,3.802333321E0
6.900107833E0,2.267555785E0,4.776155141E0,-1.902376410E0,5.618941464E0
6.910133833E0,4.068315480E0,4.715580326E0,3.264819757E0,7.031851584E0
6.920158833E0,4.530014260E0,2.949226817E0,1.209055444E1,1.324388442E1
6.930184833E0,3.103231660E0,-2.990441501E-2,1.810880583E1,1.837280026E1
6.940209833E0,3.234324773E0,1.515667002E-1,1.804995243E1,1.833806456E1
6.950234833E0,3.262390531E0,3.507851382E-1,1.800004060E1,1.829665827E1
6.960260833E0,3.167223296E0,5.147090515E-1,1.797188041E1,1.825608704E1
6.970285833E0,3.022737135E0,6.173197925E-1,1.796448017E1,1.822746750E1
6.980311833E0,2.932284802E0,6.620072843E-1,1.796531165E1,1.821507536E1
6.990336833E0,2.944538812E0,6.613599975E-1,1.796408022E1,1.821581412E1
7.000363792E0,3.024938904E0,6.338856854E-1,1.796096483E1,1.822493687E1
7.010388792E0,3.120094445E0,5.846060827E-1,1.796163842E1,1.823998927E1
7.020413792E0,3.195204854E0,5.177544276E-1,1.796884921E1,1.825806522E1
7.030439792E0,3.235421711E0,4.489274369E-1,1.798027584E1,1.827456727E1
7.040464792E0,3.246918506E0,3.964746965E-1,1.799092830E1,1.828587359E1
7.050490792E0,3.247991470E0,3.669102971E-1,1.799749589E1,1.829190887E1
7.060515792E0,3.254064973E0,3.539823957E-1,1.799995874E1,1.829515665E1
7.070540792E0,3.275507005E0,3.455455944E-1,1.800023473E1,1.829909282E1
7.080566792E0,3.317264603E0,3.283809467E-1,1.800110479E1,1.830715303E1
7.090591792E0,3.373412784E0,2.961011003E-1,1.800476164E1,1.832045391E1
7.100617792E0,4.899331198E-1,-5.641460904E-1,7.298937212E0,7.337082506E0
7.110642792E0,9.523250498E-2,-9.440436383E-1,3.475181526E0,3.602384524E0
7.120668792E0,-1.259410583E-1,-1.055221573E0,-4.416875607E-1,1.150843873E0
7.130693792E0,-4.310529738E-1,-1.251486144E0,-3.566051350E0,3.803780549E0
7.140718792E0,-6.435566877E-1,-1.500462487E0,-5.680091119E0,5.910075127E0
7.150744792E0,-7.721816911E-1,-1.871437038E0,-6.700346636E0,6.999513282E0
7.160769792E0,-9.108644901E-1,-2.385906499E0,-6.280544618E0,6.779931021E0
7.170795792E0,-1.129169044E0,-3.019405099E0,-5.548535784E0,6.417014822E0
7.180820792E0,-1.484459827E0,-3.484140045E0,-5.355804539E0,6.559534671E0
7.190845792E0,-1.770154492E0,-3.567349432E0,-5.958124470E0,7.166496779E0
7.200871792E0,-1.834952312E0,-3.270951439E0,-7.325594668E0,8.229854831E0
7.210896792E0,-1.648602573E0,-2.753618158E0,-8.996866896E0,9.552168201E0
7.220922792E0,-1.254908666E0,-2.222154933E0,-1.061657428E1,1.091899344E1
7.230947792E0,-8.402090751E-1,-1.853712519E0,-1.187279828E1,1.204597611E1
7.240972792E0,-2.449697941E-1,-1.916427854E0,-1.234187011E1,1.249217610E1
7.250998792E0,7.162590668E-2,-2.182915584E0,-1.200074354E1,1.219787261E1
7.261023792E0,4.905993003E-2,-2.634338174E0,-1.113961708E1,1.144697397E1
7.271049792E0,6.990755618E-2,-2.993230038E0,-1.013904154E1,1.057187194E1
7.281074792E0,7.513785403E-2,-3.076328913E0,-9.228745834E0,9.728267828E0
7.291100792E0,1.214903405E-1,-3.020736803E0,-8.888603359E0,9.388657007E0
7.301125792E0,-3.336300652E-2,-2.838303967E0,-9.003615167E0,9.440453833E0
7.311150792E0,-2.520730648E-1,-2.690978690E0,-9.273556556E0,9.659387058E0
7.321176792E0,-3.866483410E-1,-2.467795731E0,-9.433285530E0,9.758400925E0
7.331201792E0,-7.020227046E-1,-2.217448801E0,-9.480229316E0,9.761386323E0
7.341227792E0,-1.039446955E0,-2.029634480E0,-9.289770300E0,9.565547466E0
7.351252792E0,-1.205580458E0,-1.795801110E0,-8.854629866E0,9.114976464E0
7.361277792E0,-1.252433686E0,-1.591635197E0,-8.386595337E0,8.627680690E0
7.371303792E0,-1.318986109E0,-1.466025310E0,-8.027095655E0,8.265786062E0
7.381328792E0,-1.344433046E0,-1.415659295E0,-7.918253244E0,8.155386311E0
7.391354792E0,-1.303334721E0,-1.306342090E0,-7.948264078E0,8.159663774E0
7.401379792E0,-1.247236096E0,-1.255492949E0,-7.965382386E0,8.159606423E0
7.411405792E0,-1.278676720E0,-1.276358592E0,-8.086833733E0,8.286192445E0
7.421430792E0,-1.391080232E0,-1.360800864E0,-8.225733172E0,8.452784714E0
7.431455792E0,-1.414319260E0,-1.483593124E0,-8.251570848E0,8.502339030E0
7.441481792E0,-1.338666960E0,-1.633868466E0,-8.255315405E0,8.521255062E0
7.451506792E0,-1.185154307E0,-1.684982487E0,-8.178633265E0,8.434085534E0
7.461531792E0,-9.834842773E-1,-1.748662173E0,-8.012624381E0,8.259976403E0
7.471557792E0,-6.626577871E-1,-1.799780287E0,-7.926529393E0,8.155255522E0
7.481582792E0,-1.007316103E-1,-1.736355246E0,-7.888117279E0,8.077590643E0
7.491608792E0,2.401959628E-1,-1.684571427E0,-7.565517036E0,7.754516298E0
7.501633792E0,4.246176378E-1,-1.680527785E0,-7.107785885E0,7.316084606E0
7.511659792E0,3.798773749E-1,-1.852582691E0,-6.084948823E0,6.372046110E0
7.521684792E0,2.662688984E-1,-2.240010137E0,-4.287810600E0,4.844983414E0
7.531709792E0,2.137569550E-1,-2.512814907E0,-2.736481138E0,3.721325007E0
7.541735792E0,8.127107162E-2,-2.354236079E0,-1.891798797E0,3.021247291E0
7.551760792E0,-1.361993404E-1,-1.552844184E0,-1.244830697E0,1.994863099E0
7.561786792E0,-7.622369660E-1,4.133113155E-1,-3.868424320E-1,9.494622178E-1
7.571811792E0,-1.225718561E0,2.689623598E0,-5.338186294E-1,3.003568448E0
7.581836792E0,-4.994260378E-2,3.890437041E0,-4.727362758E-1,3.919371661E0
7.591862792E0,2.398292656E0,5.337414461E0,3.011116086E0,6.580776617E0
7.601887792E0,5.619515719E0,5.640093241E0,1.085960094E1,1.346553160E1
7.611913792E0,7.593481929E0,2.936921352E0,1.983656216E1,2.144238030E1
7.621938792E0,7.656564031E0,3.073857295E0,1.979172337E1,2.144257180E1
7.631963792E0,7.785439003E0,3.202314191E0,1.974373644E1,2.146352732E1
7.641989792E0,7.916173974E0,3.319491808E0,1.970186570E1,2.149065723E1
7.652014792E0,8.004641177E0,3.420826394E0,1.967062753E1,2.151069318E1
7.662040792E0,8.049659475E0,3.491043853E0,1.965154690E1,2.152133129E1
7.672065792E0,8.077172379E0,3.511772232E0,1.964485768E1,2.152890362E1
7.682090792E0,8.102355167E0,3.482231514E0,1.964898816E1,2.153733575E1
7.692116792E0,8.120347050E0,3.421725403E0,1.966054693E1,2.154496105E1
7.702141792E0,8.119439562E0,3.354506105E0,1.967553452E1,2.154773001E1
7.712167792E0,8.096556484E0,3.297937217E0,1.969032095E1,2.154389371E1
7.722192792E0,8.063130875E0,3.253099890E0,1.970363389E1,2.153671115E1
7.732218792E0,8.034374269E0,3.214130244E0,1.971546164E1,2.153093660E1
7.742243792E0,8.025644376E0,3.182644742E0,1.972389333E1,2.153072603E1
7.752268792E0,8.052065020E0,3.160348139E0,1.972704381E1,2.154019055E1
7.762294792E0,8.121741026E0,3.138768990E0,1.972659240E1,2.156276874E1
7.772319792E0,8.223787218E0,3.102874687E0,1.972803082E1,2.159753938E1
7.782345792E0,8.333534778E0,3.044576778E0,1.973604618E1,2.163859442E1
7.792370792E0,-9.580880655E-1,-8.554868263E-1,7.040212537E0,7.156422501E0
7.802395792E0,-1.085134028E0,-9.925058001E-1,2.527528548E0,2.924206590E0
7.812421792E0,-8.758053891E-1,-1.225819060E0,-1.169796887E0,1.907378359E0
7.822446792E0,-6.650452783E-1,-1.595894894E0,-3.998735953E0,4.356495720E0
7.832472792E0,-4.097605572E-1,-2.083358844E0,-6.142592429E0,6.499209916E0
7.842497792E0,-1.142373811E-1,-2.741178499E0,-7.756843779E0,8.227741802E0
7.852522792E0,6.252041233E-2,-3.466902746E0,-9.155971388E0,9.790563595E0
7.862548792E0,1.020654424E-1,-3.933058565E0,-1.083969000E1,1.153161941E1
7.872573792E0,1.253321256E-1,-3.935092519E0,-1.294005313E1,1.352573977E1
7.882599792E0,1.102948868E-1,-3.775731334E0,-1.494197488E1,1.541203833E1
7.892624792E0,2.249130404E-1,-3.838826592E0,-1.610330324E1,1.655607293E1
7.902649792E0,9.781582678E-1,-4.052708092E0,-1.687878554E1,1.738604722E1
7.912675792E0,8.413033084E-1,-4.137156797E0,-1.626752697E1,1.680643601E1
7.922700792E0,1.133040047E0,-4.152424169E0,-1.500547564E1,1.561059593E1
7.932726792E0,1.419167917E0,-4.298149647E0,-1.349531175E1,1.423416900E1
7.942751792E0,1.504375590E0,-4.523892225E0,-1.164190226E1,1.258024781E1
7.952776792E0,1.348143104E0,-4.743583811E0,-9.741798077E0,1.091886931E1
7.962802792E0,1.007956994E0,-4.924834925E0,-8.128910297E0,9.557675395E0
7.972827792E0,7.633309069E-1,-5.081922712E0,-6.839758875E0,8.555168847E0
7.982853792E0,5.800552313E-1,-4.921249997E0,-5.904387388E0,7.708239490E0
7.992878792E0,4.859098334E-1,-4.567723538E0,-5.484724535E0,7.154188277E0
8.002902792E0,3.692515588E-1,-4.146133735E0,-5.696684933E0,7.055422800E0
8.012928792E0,1.968257939E-1,-3.580382291E0,-6.235028722E0,7.192597647E0
8.022953792E0,1.198977051E-1,-2.980186362E0,-6.925350417E0,7.540315949E0
8.032979792E0,1.231275517E-1,-2.324935974E0,-7.828380954E0,8.167253886E0
8.043004792E0,1.908508166E-1,-1.738661681E0,-8.673325251E0,8.847934187E0
8.053029792E0,1.916950631E-1,-1.378127041E0,-9.225193650E0,9.329532626E0
8.063055792E0,6.556506665E-2,-1.222032403E0,-9.562864507E0,9.640852636E0
8.073080792E0,-1.221151155E-1,-1.189555798E0,-9.652471333E0,9.726261251E0
8.083106792E0,-2.609599007E-1,-1.183777287E0,-9.672524943E0,9.748187909E0
8.093131792E0,-3.530893797E-1,-1.124092418E0,-9.635534872E0,9.707305916E0
8.103156792E0,-3.104732640E-1,-1.051534027E0,-9.465597829E0,9.528885544E0
8.113182792E0,-1.183779772E-2,-8.750919557E-1,-9.164544575E0,9.206237197E0
8.123207792E0,4.137756940E-1,-7.808982816E-1,-8.565196200E0,8.610667709E0
8.133233792E0,6.874313434E-1,-8.415865329E-1,-8.088494927E0,8.161162903E0
8.143258792E0,8.079206041E-1,-8.516419896E-1,-7.653048685E0,7.742556680E0
8.153283792E0,8.574272248E-1,-8.216253081E-1,-7.295941683E0,7.391956076E0
8.163309792E0,9.738466041E-1,-7.017787296E-1,-7.311540885E0,7.409419728E0
8.173334792E0,1.040996613E0,-5.937555134E-1,-7.403406490E0,7.499776478E0
8.183360792E0,9.459310464E-1,-6.692135391E-1,-6.814712911E0,6.912520840E0
8.193385792E0,7.700271383E-1,-9.065283412E-1,-5.556445897E0,5.682325795E0
8.203410792E0,6.754890633E-1,-1.257592830E0,-4.019352651E0,4.265327764E0
8.213436792E0,3.109915466E-1,-1.497390652E0,-2.384288136E0,2.832617945E0
8.223461792E0,-1.431362029E-1,-1.336153096E0,-1.136853089E0,1.760178404E0
8.233487792E0,-4.681355403E-1,-2.978378695E-1,-1.302876592E-2,5.550027292E-1
8.243512792E0,-9.835789291E-1,7.306724533E-1,1.927039965E0,2.283592077E0
8.253537792E0,-1.522896353E0,2.470298632E0,4.151465811E0,5.065200589E0
8.263563792E0,-1.398915062E0,4.264257723E0,3.950142083E0,5.978668728E0
8.273588792E0,-2.963728679E-1,5.137617441E0,3.823172718E0,6.410896933E0
8.283614792E0,7.483316293E-1,4.028599145E0,8.931144776E0,9.826238259E0
8.293639792E0,1.142247584E0,1.685126621E-1,1.809920704E1,1.813599794E1
8.303664792E0,1.074347377E0,1.456579426E-1,1.811000801E1,1.814243172E1
8.313690792E0,1.037849496E0,8.924722195E-2,1.813092818E1,1.816082744E1
8.323715792E0,9.820145796E-1,2.395955086E-2,1.815663137E1,1.818318425E1
8.333741792E0,9.020465966E-1,-3.290783733E-2,1.818187731E1,1.820426965E1
8.343766792E0,8.230405536E-1,-6.872203320E-2,1.820056384E1,1.821929314E1
8.353791792E0,7.824453087E-1,-7.987998247E-2,1.820787988E1,1.822485915E1
8.363817792E0,8.050388038E-1,-6.627585053E-2,1.820112284E1,1.821903819E1
8.373842792E0,8.773953201E-1,-2.952171475E-2,1.818243864E1,1.820361967E1
8.383868792E0,9.659546171E-1,1.779570848E-2,1.815977717E1,1.818545826E1
8.393893792E0,1.035684710E0,5.939104646E-2,1.814124852E1,1.817088517E1
8.403918792E0,1.064214591E0,8.884259462E-2,1.812964764E1,1.816107291E1
8.413944792E0,1.050857796E0,1.094774187E-1,1.812336890E1,1.815413969E1
8.423969792E0,1.012873699E0,1.266436744E-1,1.811971205E1,1.814844116E1
8.433995792E0,9.753220028E-1,1.388661093E-1,1.811786784E1,1.814463204E1
8.444020792E0,9.577650069E-1,1.403457472E-1,1.811847478E1,1.814431424E1
8.454045792E0,9.671921072E-1,1.271015114E-1,1.812231289E1,1.814854925E1
8.464071792E0,9.979441492E-1,9.936553627E-2,1.812978330E1,1.815750006E1
8.474096792E0,-1.072752111E-1,1.871942237E-1,8.151982825E0,8.154837438E0
8.484122792E0,-2.150924956E-1,2.452015266E-1,3.918380007E0,3.931932152E0
8.494147792E0,-3.682967450E-2,2.959983355E-1,-7.831941909E-1,8.380719421E-1
8.504172792E0,-9.793267608E-2,2.302548739E-1,-4.949597883E0,4.955918414E0
8.514198792E0,-1.173133454E-1,-3.230092558E-1,-7.628465821E0,7.636202471E0
8.524223792E0,2.753439964E-1,-1.187773567E0,-8.538062196E0,8.624681236E0
8.534249792E0,8.546802029E-1,-2.179991099E0,-7.986203737E0,8.322396864E0
8.544274792E0,1.229186179E0,-3.136254687E0,-6.839208652E0,7.623763317E0
8.554299792E0,1.166479177E0,-3.798234051E0,-6.335214915E0,7.478114976E0
8.564325792E0,8.011737943E-1,-3.940852903E0,-7.099504473E0,8.159360564E0
8.574350792E0,4.013075665E-1,-3.515307166E0,-8.845220527E0,9.526613166E0
8.584376792E0,1.456265686E-1,-2.919004898E0,-1.091183762E1,1.129645949E1
8.594401792E0,1.018283835E-1,-2.344005498E0,-1.239745725E1,1.261751469E1
8.604426792E0,1.978762462E-1,-1.877358805E0,-1.313510806E1,1.327006763E1
8.614452792E0,2.501274403E-1,-1.686996560E0,-1.285415519E1,1.296679709E1
8.624477792E0,3.479418930E-1,-2.071292237E0,-1.140027543E1,1.159213505E1
8.634503792E0,4.219727595E-1,-2.576192292E0,-9.525884961E0,9.877110510E0
8.644528792E0,3.310513335E-1,-2.925696159E0,-7.992161465E0,8.517272913E0
8.654553792E0,2.567798541E-1,-3.121940996E0,-7.087721749E0,7.749080659E0
8.664579792E0,3.575543135E-2,-3.141076301E0,-6.872705011E0,7.556567538E0
8.674604792E0,-2.125908009E-1,-2.989967584E0,-7.115089057E0,7.720724920E0
8.684630792E0,-3.184676503E-1,-2.830775969E0,-7.508304954E0,8.030526603E0
8.694655792E0,-4.161525872E-1,-2.639057462E0,-7.829250435E0,8.272543118E0
8.704680792E0,-6.237484407E-1,-2.509183493E0,-8.155244987E0,8.555295712E0
8.714706792E0,-8.192680762E-1,-2.553285240E0,-8.505527118E0,8.918209308E0
8.724731792E0,-9.445264721E-1,-2.566595257E0,-8.698845423E0,9.118632199E0
8.734756792E0,-9.265145628E-1,-2.519850861E0,-8.680238414E0,9.085957105E0
8.744782792E0,-9.091504519E-1,-2.437286130E0,-8.670597525E0,9.052412919E0
8.754807792E0,-8.322198781E-1,-2.341967744E0,-8.704537688E0,9.052423940E0
8.764833792E0,-6.400588102E-1,-2.131724088E0,-8.751116023E0,9.029726160E0
8.774858792E0,-4.000367472E-1,-1.824612242E0,-8.860164256E0,9.054929590E0
8.784883792E0,-2.882185420E-1,-1.588086230E0,-8.909126501E0,9.054149480E0
8.794909792E0,-2.355262119E-1,-1.425346816E0,-8.765000237E0,8.883260398E0
8.804934792E0,-3.693997492E-1,-1.302320814E0,-8.609826243E0,8.715595425E0
8.814960792E0,-5.562672597E-1,-1.256719256E0,-8.414390661E0,8.525886860E0
8.824985792E0,-6.599912374E-1,-1.194088852E0,-8.008259434E0,8.123647936E0
8.835010792E0,-5.419635815E-1,-1.215939312E0,-7.552263737E0,7.668697444E0
8.845036792E0,-2.259979548E-1,-1.349873295E0,-6.692766890E0,6.831278184E0
8.855061792E0,-1.384881599E-1,-1.579197000E0,-5.055345363E0,5.298071241E0
8.865087792E0,-4.134887785E-2,-1.849214694E0,-3.218763578E0,3.712377094E0
8.875112792E0,3.780239537E-2,-1.910011704E0,-1.779097223E0,2.610509655E0
8.885137792E0,-4.451273315E-2,-1.745913105E0,-7.113909674E-1,1.885807801E0
8.895163792E0,-4.461487669E-1,-7.816908717E-1,8.987462819E-2,9.045257265E-1
8.905188792E0,-8.032653433E-1,1.573544204E-1,2.198845446E-1,8.475522629E-1
8.915214792E0,-9.193484346E-1,8.270363215E-1,2.613687855E-1,1.263924152E0
8.925239792E0,-9.437091044E-1,1.593569456E0,1.432566081E0,2.341430345E0
8.935264792E0,-1.411062360E0,2.569211009E0,3.727800538E0,4.742197702E0
8.945290792E0,-1.967367042E0,4.407993394E0,5.017988672E0,6.962840595E0
8.955315792E0,-8.713596779E-1,4.679123814E0,4.267093915E0,6.392304579E0
8.965341792E0,-5.476170351E-1,3.562454728E0,5.770473871E0,6.803626739E0
8.975366792E0,-3.988984405E-1,2.610837337E0,9.252282046E0,9.621866484E0
8.985391792E0,-1.307637687E-1,9.676048476E-1,1.355548778E1,1.359060732E1
8.995417792E0,-1.074887806E-1,1.076679101E0,1.351696515E1,1.356020423E1
9.005443083E0,-9.147822708E-2,1.172381064E0,1.348478559E1,1.353596276E1
9.015468083E0,-7.861420646E-2,1.204245466E0,1.347365834E1,1.352759610E1
9.025494083E0,-6.383661143E-2,1.154639150E0,1.348798285E1,1.353746460E1
9.035519083E0,-4.801879674E-2,1.053090848E0,1.351948530E1,1.356052318E1
9.045545083E0,-4.321092367E-2,9.432973874E-1,1.355597895E1,1.358882785E1
9.055570083E0,-5.248804294E-2,8.577684098E-1,1.358652363E1,1.361367496E1
9.065595083E0,-5.716413438E-2,8.144922897E-1,1.360232164E1,1.362680518E1
9.075621083E0,-3.986346580E-2,8.204073331E-1,1.359872677E1,1.362351009E1
9.085646083E0,3.052685112E-3,8.765514207E-1,1.357532387E1,1.360359401E1
9.095672083E0,6.698321745E-2,9.653071842E-1,1.353983011E1,1.357436201E1
9.105697083E0,1.364020195E-1,1.053674693E0,1.350552917E1,1.354725633E1
9.115722083E0,1.896447552E-1,1.116622600E0,1.348177544E1,1.352926754E1
9.125748083E0,2.118769655E-1,1.148492264E0,1.347031373E1,1.352084606E1
9.135773083E0,-8.987789532E-1,1.905337147E0,8.819754733E0,9.067865615E0
9.145799083E0,-1.145396456E0,9.551663581E-1,6.778301130E0,6.940435290E0
9.155824083E0,-3.612685380E-1,4.130970150E-1,4.728050975E0,4.759793076E0
9.165849083E0,7.821198381E-1,5.696263933E-1,2.178773124E0,2.383954277E0
9.175875083E0,1.350452169E0,5.460708851E-1,-9.421799845E-1,1.734824947E0
9.185900083E0,1.357031749E0,-1.974645656E-1,-3.963448007E0,4.193977530E0
9.195926083E0,8.724481371E-1,-1.291315185E0,-6.064837325E0,6.261861738E0
9.205951083E0,3.289179403E-1,-2.301243348E0,-7.368953526E0,7.726925911E0
9.215976083E0,-1.718181296E-1,-3.104171892E0,-8.551029566E0,9.098654364E0
9.226002083E0,-8.787501930E-1,-3.518243930E0,-9.912368374E0,1.055487039E1
9.236027083E0,-1.359180893E0,-3.507061423E0,-1.162112710E1,1.221464071E1
9.246052083E0,-1.479726799E0,-3.206191187E0,-1.343215012E1,1.388855321E1
9.256078083E0,-1.330826721E0,-2.788834768E0,-1.423350050E1,1.456506902E1
9.266103083E0,-1.144058613E0,-2.449950906E0,-1.413105962E1,1.438742422E1
9.276129083E0,-8.522099005E-1,-2.471497311E0,-1.340145107E1,1.365406355E1
9.286154083E0,-6.249393723E-1,-2.697164460E0,-1.210914508E1,1.242161985E1
9.296179083E0,-4.154319179E-1,-2.917978127E0,-1.044489068E1,1.085278403E1
9.306205083E0,-5.076486848E-2,-3.156463834E0,-8.628947808E0,9.188285002E0
9.316230083E0,7.196647044E-2,-3.453755281E0,-6.943729386E0,7.755577509E0
9.326256083E0,-4.282365527E-2,-3.577908919E0,-5.658234812E0,6.694690978E0
9.336281083E0,-1.982253249E-1,-3.606571970E0,-4.959035289E0,6.135037543E0
9.346306083E0,-2.817651893E-1,-3.459708332E0,-4.823682187E0,5.942800956E0
9.356332083E0,-3.459221185E-1,-3.194008221E0,-5.164554979E0,6.082267567E0
9.366357083E0,-4.627257695E-1,-3.054565869E0,-5.736741284E0,6.515726233E0
9.376382083E0,-6.211915994E-1,-2.979629999E0,-6.498365681E0,7.175850504E0
9.386408083E0,-8.056988814E-1,-2.879233599E0,-7.314926423E0,7.902359482E0
9.396433083E0,-9.981319179E-1,-2.755777242E0,-8.179272366E0,8.688559832E0
9.406459083E0,-1.037333625E0,-2.605943803E0,-8.746097943E0,9.184837145E0
9.416484083E0,-9.320322879E-1,-2.476296121E0,-8.967033232E0,9.349246582E0
9.426509083E0,-9.428834045E-1,-2.364178977E0,-9.253433948E0,9.597104312E0
9.436535083E0,-9.263210200E-1,-2.217104546E0,-9.550416369E0,9.848049352E0
9.446560083E0,-8.986408858E-1,-2.138134975E0,-9.766885555E0,1.003848744E1
9.456586083E0,-9.091801997E-1,-2.078939518E0,-9.786697676E0,1.004629532E1
9.466611083E0,-9.163696437E-1,-1.993019654E0,-9.738176896E0,9.982181621E0
9.476636083E0,-7.859055448E-1,-1.812167028E0,-9.559854945E0,9.761783824E0
9.486662083E0,-8.113466339E-1,-1.672937222E0,-9.174929230E0,9.361427706E0
9.496687083E0,-9.737372611E-1,-1.724611114E0,-8.528339446E0,8.755285344E0
9.506713083E0,-1.289710709E0,-1.824457876E0,-7.497123324E0,7.822969921E0
9.516738083E0,-1.394087309E0,-1.851255665E0,-6.467601140E0,6.870261383E0
9.526763083E0,-1.290589253E0,-1.695244642E0,-5.386891846E0,5.792933521E0
9.536789083E0,-1.407339146E0,-1.364524371E0,-4.295510214E0,4.721645712E0
9.546814083E0,-1.436880887E0,-5.710960910E-1,-2.838828462E0,3.232603357E0
9.556839083E0,-1.105298590E0,5.762758470E-1,-3.325896263E-1,1.290114214E0
9.566865083E0,-1.167155407E-1,1.930260319E0,3.532041020E0,4.026765599E0
9.576890083E0,7.964758489E-1,2.832685085E0,7.265974118E0,7.839187359E0
9.586916083E0,8.276514485E-1,3.098294856E0,1.010661405E1,1.060321109E1
9.596941083E0,1.863150948E-1,3.703678142E0,1.193798187E1,1.250069423E1
9.606966083E0,1.919364618E-1,3.611503512E0,1.197277982E1,1.250708814E1
9.616992083E0,1.772863360E-1,7.384434614E0,8.826936868E0,1.150982708E1
9.627017083E0,2.922220867E0,8.832707486E0,8.414401771E0,1.254425181E1
9.637043083E0,6.364606529E0,8.148210202E0,1.339495481E1,1.692118082E1
9.647068083E0,6.388025213E0,8.174634354E0,1.338172724E1,1.693228091E1
9.657093083E0,6.514029787E0,8.205992972E0,1.335523351E1,1.697448576E1
9.667119083E0,6.666581304E0,8.238367835E0,1.332785918E1,1.702779614E1
9.677144083E0,6.770605025E0,8.251199550E0,1.331426558E1,1.706437969E1
9.687169083E0,6.777406506E0,8.234096444E0,1.332024260E1,1.706348283E1
9.697195083E0,6.688998359E0,8.207278190E0,1.333779360E1,1.702935268E1
9.707220083E0,6.573394813E0,8.197694603E0,1.335230990E1,1.699105341E1
9.717246083E0,6.508172631E0,8.218460990E0,1.335105509E1,1.697498406E1
9.727271083E0,6.537990507E0,8.270823975E0,1.332795742E1,1.699371348E1
9.737296083E0,6.646787310E0,8.340676568E0,1.329128485E1,1.704127108E1
9.747322083E0,6.781910616E0,8.402934211E0,1.325726458E1,1.709849932E1
9.757347083E0,6.894746091E0,8.437338644E0,1.323702971E1,1.714482903E1
9.767373083E0,1.664900736E-1,3.171516614E0,9.612814347E0,1.012385481E1
9.777398083E0,-3.773877401E-1,2.769287818E0,5.356894460E0,6.042159778E0
9.787423083E0,5.976727825E-2,2.258534993E0,1.075192446E0,2.502117351E0
9.797449083E0,1.395679798E0,1.753772055E0,-1.643749968E0,2.779487809E0
9.807474083E0,3.152654958E0,1.750724779E0,-3.042828460E0,4.718376370E0
9.817499083E0,4.378869290E0,1.079710005E0,-3.576034302E0,5.755718137E0
9.827525083E0,4.558448977E0,-5.422810122E-1,-4.102176121E0,6.156409238E0
9.837550083E0,3.990631127E0,-1.709454546E0,-5.482428333E0,6.993167527E0
9.847576083E0,3.356745881E0,-2.322571068E0,-7.269276626E0,8.336933605E0
9.857601083E0,2.613462152E0,-2.755297185E0,-9.042350047E0,9.807443162E0
9.867626083E0,1.725306201E0,-2.728921565E0,-1.096916723E1,1.143443589E1
9.877652083E0,1.041197538E0,-2.557215446E0,-1.289642004E1,1.318867290E1
9.887677083E0,5.549430846E-1,-2.522222492E0,-1.428916132E1,1.452066456E1
9.897703083E0,2.476672974E-1,-2.314821460E0,-1.513590129E1,1.531389060E1
9.907728083E0,4.624434952E-2,-2.205683180E0,-1.511096409E1,1.527116278E1
9.917753083E0,-4.886608570E-2,-2.406842017E0,-1.411196846E1,1.431582796E1
9.927779083E0,6.880128125E-2,-2.719504917E0,-1.234491417E1,1.264109751E1
9.937804083E0,2.232531804E-1,-2.910051641E0,-1.057834051E1,1.097358330E1
9.947829083E0,4.442863557E-1,-3.006031055E0,-9.037398625E0,9.534578490E0
9.957855083E0,7.091146463E-1,-3.101792368E0,-7.597915873E0,8.237249850E0
9.967880083E0,9.728889032E-1,-3.270563769E0,-6.196828862E0,7.074163423E0
9.977906083E0,1.086219856E0,-3.359076873E0,-5.000786163E0,6.121366944E0
9.987931083E0,1.055030004E0,-3.344055084E0,-4.392005060E0,5.620097967E0
9.997956083E0,7.885695362E-1,-3.257751350E0,-4.671334153E0,5.749447673E0
1.000798208E1,3.411901496E-1,-3.009512195E0,-5.617425925E0,6.381931399E0
1.001800708E1,2.770595329E-2,-2.766555414E0,-6.488682691E0,7.053906687E0
1.002803308E1,-2.073699865E-1,-2.563604114E0,-7.229244248E0,7.673137609E0
1.003805808E1,-3.898322596E-1,-2.479503904E0,-7.882565932E0,8.272530113E0
1.004808308E1,-4.823804906E-1,-2.419166778E0,-8.341799818E0,8.698889759E0
1.005810908E1,-6.011801251E-1,-2.389452397E0,-8.654443422E0,8.998349362E0
1.006813408E1,-7.819018100E-1,-2.400329388E0,-8.880586826E0,9.232430557E0
1.007815908E1,-8.458747347E-1,-2.536985250E0,-8.992120711E0,9.381366270E0
1.008818508E1,-8.489220111E-1,-2.672986223E0,-9.099026524E0,9.521439367E0
1.009821008E1,-5.941423067E-1,-2.665991199E0,-9.281556716E0,9.675112879E0
1.010823608E1,-1.922427828E-1,-2.542490695E0,-9.488319524E0,9.824938860E0
1.011826108E1,3.426658407E-1,-2.626981792E0,-9.314259024E0,9.683691154E0
1.012828608E1,7.990515473E-1,-3.009856596E0,-8.926315561E0,9.453931965E0
1.013831208E1,6.762308557E-1,-3.180634469E0,-8.363500004E0,8.973397134E0
1.014833708E1,3.133208580E-1,-2.932489454E0,-7.784664246E0,8.324581779E0
1.015836208E1,4.059954254E-1,-2.769522292E0,-7.428688096E0,7.938544756E0
1.016838808E1,5.120516382E-1,-2.358472972E0,-7.064263304E0,7.465146192E0
1.017841308E1,4.602673808E-1,-1.757995791E0,-6.656674951E0,6.900269319E0
1.018843908E1,4.230628267E-1,-1.034582364E0,-5.851923831E0,5.957713936E0
1.019846408E1,2.649769561E-1,7.165207297E-2,-4.039619685E0,4.048934922E0
1.020848908E1,-1.693558671E-1,1.006593497E0,-1.369044269E0,1.707686765E0
1.021851508E1,-5.740586924E-1,1.137885123E0,2.834249507E0,3.107619057E0
1.022854008E1,-2.131905060E0,1.706381834E0,8.210570172E0,8.652757982E0
1.023856608E1,-4.667003997E0,3.854562326E0,1.145066088E1,1.295207365E1
1.024859108E1,-5.352346496E0,6.795382016E0,9.530819426E0,1.287094980E1
1.025861608E1,-7.309905419E-1,7.219836663E0,6.586685534E0,9.800245657E0
1.026864208E1,5.258223281E0,5.909372724E0,1.232810576E1,1.464758648E1
1.027866708E1,6.393457861E0,3.122929760E0,2.272851550E1,2.381626357E1
1.028869208E1,6.549691370E0,3.080131357E0,2.273725358E1,2.386144100E1
1.029871808E1,6.694042168E0,3.072406893E0,2.273822655E1,2.390139811E1
1.030874308E1,-5.674543866E0,2.895033945E0,7.377002803E0,9.746888734E0
1.031876908E1,-6.544542897E0,6.679309523E0,7.255171387E0,1.183561276E1
1.032879408E1,-2.707419599E0,8.326829191E0,1.359518687E1,1.617081665E1
1.033881908E1,2.387021710E0,8.275645589E0,2.085034071E1,2.255927504E1
1.034884508E1,2.383442337E0,8.281812648E0,2.084874325E1,2.255968336E1
1.035887008E1,2.503292716E0,8.304183510E0,2.083634716E1,2.256943289E1
1.036889508E1,2.664731416E0,8.329477980E0,2.082354409E1,2.258541533E1
1.037892108E1,2.787230584E0,8.332166530E0,2.082041232E1,2.259830132E1
1.038894608E1,2.825093060E0,8.296776842E0,2.083014677E1,2.259895288E1
1.039897208E1,2.778977824E0,8.229442645E0,2.085036644E1,2.258725802E1
1.040899708E1,2.688829254E0,8.151114514E0,2.087561939E1,2.257126394E1
1.041902208E1,2.599063969E0,8.078921281E0,2.090052386E1,2.255783678E1
1.042904808E1,2.400603037E0,3.268961340E0,8.147354169E0,9.101010007E0
1.043907308E1,3.776448203E0,2.028419575E0,6.189100013E0,7.528678899E0
1.044909908E1,4.134995666E0,1.074401903E0,3.857536805E0,5.756137490E0
1.045912408E1,3.556449637E0,7.255915153E-1,9.171965861E-1,3.743803767E0
1.046914908E1,2.803805687E0,4.432785881E-1,-2.574656521E0,3.832320242E0
1.047917508E1,2.016727190E0,-1.069748104E-3,-5.992590882E0,6.322842334E0
1.048920008E1,1.307749661E0,-5.060423085E-1,-8.906013443E0,9.015728670E0
1.049922508E1,4.741301789E-1,-9.952159846E-1,-1.034006647E1,1.039866477E1
1.050925108E1,-3.489928935E-2,-1.765310658E0,-9.923752903E0,1.007960373E1
1.051927608E1,-2.467976337E-1,-2.651198036E0,-8.275699384E0,8.693501043E0
1.052930208E1,-6.586191152E-1,-3.294207570E0,-6.734196752E0,7.525622137E0
1.053932708E1,-1.198168308E0,-3.452273889E0,-6.778798728E0,7.701033339E0
1.054935208E1,-1.656774641E0,-3.229157588E0,-8.012853007E0,8.796486472E0
1.055937808E1,-2.073427933E0,-2.953006749E0,-9.425006458E0,1.009208100E1
1.056940308E1,-2.179646114E0,-2.750191397E0,-1.023579892E1,1.082062796E1
1.057942808E1,-1.805838295E0,-2.642686244E0,-1.053639960E1,1.101183723E1
1.058945408E1,-1.491080776E0,-2.514593630E0,-1.019345105E1,1.060438340E1
1.059947908E1,-1.217632008E0,-2.530948584E0,-9.458640811E0,9.866823929E0
1.060950508E1,-1.079283962E0,-2.610060242E0,-8.690661660E0,9.138099826E0
1.061953008E1,-1.124144166E0,-2.724316883E0,-7.812994006E0,8.350357952E0
1.062955508E1,-1.049839650E0,-2.822987770E0,-7.113219702E0,7.724591754E0
1.063958108E1,-9.302447940E-1,-2.754235623E0,-6.645943556E0,7.253946168E0
1.064960608E1,-7.288383280E-1,-2.583993940E0,-6.320081152E0,6.866706325E0
1.065963208E1,-5.025773216E-1,-2.447352404E0,-6.172446558E0,6.658919902E0
1.066965708E1,-4.127083214E-1,-2.360944736E0,-6.132376174E0,6.584104020E0
1.067968208E1,-4.465925706E-1,-2.373922192E0,-6.158098075E0,6.614916735E0
1.068970808E1,-5.514116587E-1,-2.455404312E0,-6.304205961E0,6.787936207E0
1.069973308E1,-6.452479948E-1,-2.446890766E0,-6.556503961E0,7.027898945E0
1.070975808E1,-6.353446387E-1,-2.401542393E0,-6.921931551E0,7.354196425E0
1.071978408E1,-6.196435491E-1,-2.422732702E0,-7.342786651E0,7.756939324E0
1.072980908E1,-7.237429181E-1,-2.328011902E0,-7.635804661E0,8.015544651E0
1.073983508E1,-7.227548117E-1,-2.204722775E0,-7.873008658E0,8.207767197E0
1.074986008E1,-6.635437133E-1,-2.191727777E0,-8.096096308E0,8.413723096E0
1.075988508E1,-7.008104306E-1,-2.191671205E0,-8.334551609E0,8.646346538E0
1.076991108E1,-6.127686853E-1,-2.103630410E0,-8.437589489E0,8.717434413E0
1.077993608E1,-2.694729533E-1,-2.055350681E0,-8.362189059E0,8.615293840E0
1.078996108E1,8.163933657E-2,-2.025447728E0,-8.204556311E0,8.451263085E0
1.079998708E1,3.981525551E-1,-1.901751927E0,-8.119182284E0,8.348431399E0
1.081001208E1,7.787738420E-1,-1.599434213E0,-7.983285976E0,8.179091238E0
1.082003808E1,6.297158897E-1,-1.494490141E0,-7.384109509E0,7.560100272E0
1.083006308E1,4.384875988E-1,-1.729061722E0,-6.697517168E0,6.930992860E0
1.084008808E1,2.731882741E-1,-1.778154652E0,-5.984608848E0,6.249160653E0
1.085011408E1,2.929250389E-2,-1.736955171E0,-5.249901524E0,5.529858707E0
1.086013908E1,1.107329620E-1,-1.791923091E0,-4.455011147E0,4.803162966E0
1.087016408E1,4.765758500E-1,-1.757140929E0,-2.695621380E0,3.252851581E0
1.088019008E1,1.131646655E0,-1.300357611E0,4.715522146E-1,1.787152920E0
1.089021508E1,1.111987659E0,-1.934457743E-1,4.285519661E0,4.431660703E0
1.090024108E1,-5.153376272E-1,2.546344303E0,5.826817641E0,6.379752816E0
1.091026608E1,-1.315064674E0,5.409833397E0,3.359461035E0,6.502435769E0
1.092029108E1,-4.499662313E-1,7.071416788E0,2.261076778E0,7.437733068E0
1.093031708E1,2.464529477E0,6.840891480E0,5.294286568E0,8.994507883E0
1.094034208E1,4.622491776E0,4.741681712E0,1.174037639E1,1.347914735E1
1.095036708E1,2.948101228E0,1.530698147E0,1.543886893E1,1.579218197E1
1.096039308E1,3.043660811E0,1.521564211E0,1.543692063E1,1.580751554E1
1.097041808E1,-2.240118895E0,1.797313639E0,9.092532606E0,9.535335242E0
1.098044408E1,-2.614032256E0,4.850703925E0,7.424144225E0,9.245561675E0
1.099046908E1,1.036213810E0,7.430240532E0,9.444319226E0,1.206140038E1
1.100049408E1,4.255587180E0,7.950502977E0,1.713992804E1,1.936743796E1
1.101052017E1,4.194543418E0,8.009777956E0,1.712583391E1,1.936607664E1
1.102054517E1,4.248501524E0,8.049289931E0,1.710744091E1,1.937796088E1
1.103057017E1,4.355276359E0,8.066983021E0,1.709214810E1,1.939551943E1
1.104059617E1,4.453490286E0,8.066122895E0,1.708480166E1,1.941098560E1
1.105062117E1,4.506153234E0,8.049018620E0,1.708674995E1,1.941775326E1
1.106064717E1,4.505120031E0,8.019801253E0,1.709648323E1,1.941399128E1
1.107067217E1,4.467970039E0,7.984579965E0,1.711083229E1,1.940352688E1
1.108069717E1,4.426441067E0,7.955026968E0,1.712388445E1,1.939338169E1
1.109072317E1,4.404103826E0,7.942768865E0,1.712978312E1,1.938848054E1
1.110074817E1,5.339922917E-1,4.303755665E0,8.337068251E0,9.397561791E0
1.111077317E1,8.313263505E-1,3.191474038E0,6.845900205E0,7.598878842E0
1.112079917E1,7.586355928E-1,2.284269466E0,5.472952335E0,5.978847901E0
1.113082417E1,5.176086492E-1,1.460256155E0,3.840761728E0,4.141463196E0
1.114085017E1,4.983513561E-1,6.385191652E-1,1.806293208E0,1.979584793E0
1.115087517E1,5.829752943E-1,-1.261373055E-1,-2.594409585E-1,6.504463272E-1
1.116090017E1,6.539068441E-1,-8.845738006E-1,-2.369477139E0,2.612371888E0
1.117092617E1,6.583450270E-1,-1.483033691E0,-4.266784013E0,4.564893527E0
1.118095117E1,7.478115195E-1,-1.992980478E0,-5.605504621E0,5.996071657E0
1.119097617E1,7.980803979E-1,-2.480436242E0,-6.646327134E0,7.138848692E0
1.120100217E1,5.676168515E-1,-2.823461394E0,-7.824668557E0,8.337839118E0
1.121102717E1,3.061539258E-1,-2.931139625E0,-9.363717113E0,9.816542563E0
1.122105317E1,1.083393130E-1,-2.970867362E0,-1.092971373E1,1.132680151E1
1.123107817E1,-1.335727163E-1,-3.067027455E0,-1.211967123E1,1.250243696E1
1.124110317E1,-4.558825172E-1,-3.271514234E0,-1.292623616E1,1.334159719E1
1.125112917E1,-7.081830387E-1,-3.436985174E0,-1.329507852E1,1.375040011E1
1.126115417E1,-7.397737176E-1,-3.482469788E0,-1.330577191E1,1.377383124E1
1.127118017E1,-7.395545932E-1,-3.495324892E0,-1.291538373E1,1.340042439E1
1.128120517E1,-8.505728994E-1,-3.624574670E0,-1.219334264E1,1.274906352E1
1.129123017E1,-9.284380775E-1,-3.794649123E0,-1.130287368E1,1.195894279E1
1.130125617E1,-8.538188349E-1,-3.737434703E0,-1.034584703E1,1.103331208E1
1.131128117E1,-6.953220148E-1,-3.523898480E0,-9.366509158E0,1.003159145E1
1.132130617E1,-3.860211175E-1,-3.307826320E0,-8.584844599E0,9.208163989E0
1.133133217E1,-5.949432291E-2,-2.991658891E0,-7.957015021E0,8.501038204E0
1.134135717E1,1.159993299E-1,-2.725797105E0,-7.423840755E0,7.909288037E0
1.135138317E1,1.459165905E-1,-2.589988505E0,-7.031600173E0,7.494847103E0
1.136140817E1,4.934527416E-2,-2.542638630E0,-6.727132146E0,7.191783719E0
1.137143317E1,-1.209477920E-1,-2.522370719E0,-6.510618521E0,6.983203845E0
1.138145917E1,-3.087636843E-1,-2.568119042E0,-6.448949107E0,6.948346207E0
1.139148417E1,-4.947043746E-1,-2.566328917E0,-6.665351050E0,7.159446986E0
1.140150917E1,-6.332124516E-1,-2.561211141E0,-6.978656559E0,7.460724354E0
1.141153517E1,-6.250932272E-1,-2.496895862E0,-7.326679911E0,7.765659599E0
1.142156017E1,-5.478460997E-1,-2.399236836E0,-7.604481711E0,7.992785174E0
1.143158517E1,-4.573389855E-1,-2.343249746E0,-7.899191321E0,8.252102874E0
1.144161117E1,-4.151951422E-1,-2.278957855E0,-8.176543470E0,8.498346841E0
1.145163617E1,-3.797762912E-1,-2.293836388E0,-8.304791036E0,8.624121379E0
1.146166217E1,-3.037169160E-1,-2.341225732E0,-8.403236513E0,8.728571806E0
1.147168717E1,-2.096214386E-1,-2.279657767E0,-8.620618449E0,8.919408227E0
1.148171217E1,1.160735895E-1,-2.312108352E0,-8.771521636E0,9.071874664E0
1.149173817E1,4.768220908E-1,-2.430645154E0,-8.304529665E0,8.666060704E0
1.150176317E1,4.259935973E-1,-2.881266676E0,-7.197094502E0,7.764105710E0
1.151178917E1,-9.413542114E-3,-3.215368685E0,-5.501441140E0,6.372169097E0
1.152181417E1,-5.033868321E-1,-3.343985502E0,-3.873259383E0,5.141767749E0
1.153183917E1,-7.930373937E-1,-3.375283016E0,-2.888335083E0,4.512640391E0
1.154186517E1,-8.770133507E-1,-2.804819301E0,-2.705800213E0,3.994686286E0
1.155189017E1,-6.877426346E-1,-1.338134133E0,-2.407800960E0,2.839207346E0
1.156191517E1,6.917753130E-2,5.261400658E-1,-1.112577204E0,1.232654426E0
1.157194117E1,7.945201745E-1,2.221202275E0,1.149032840E0,2.623981387E0
1.158196617E1,5.675518012E-1,4.073318650E0,3.609927102E0,5.472258543E0
1.159199217E1,9.253204152E-2,5.638394625E0,5.378607511E0,7.792911836E0
1.160201717E1,4.442324151E-1,5.536673537E0,7.172984093E0,9.072144019E0
1.161204217E1,1.250696039E0,4.412970544E0,1.223643311E1,1.306785541E1
1.162206817E1,1.815781777E0,2.775544631E0,1.879612030E1,1.908650963E1
1.163209317E1,1.930995753E0,2.935795763E0,1.873558758E1,1.906226333E1
1.164211817E1,2.020719377E0,3.101226650E0,1.868058633E1,1.904377114E1
1.165214417E1,2.058612404E0,3.241037084E0,1.864065687E1,1.903198084E1
1.166216917E1,2.054688338E0,3.318469130E0,1.862181480E1,1.902645442E1
1.167219517E1,2.037848064E0,3.314169672E0,1.862442149E1,1.902644531E1
1.168222017E1,2.037131342E0,3.238262288E0,1.864334542E1,1.903183058E1
1.169224517E1,2.066123883E0,3.123207210E0,1.867048234E1,1.904232660E1
1.170227117E1,2.120035796E0,3.003533125E0,1.869831743E1,1.905630703E1
1.171229617E1,2.179383281E0,2.900955128E0,1.872265120E1,1.907099683E1
1.172232117E1,2.220912838E0,2.825372557E0,1.874174353E1,1.908318984E1
1.173234717E1,2.251432672E0,8.935148950E0,8.062136849E0,1.224352426E1
1.174237217E1,1.866344697E0,7.612714591E0,6.618715412E0,1.025885275E1
1.175239717E1,1.892106799E0,5.625283413E0,6.426818565E0,8.748021404E0
1.176242317E1,2.116992905E0,3.653982949E0,6.363204367E0,7.636990256E0
1.177244817E1,2.091349356E0,2.028176916E0,5.789232908E0,6.480930596E0
1.178247417E1,1.966744899E0,7.446493453E-1,4.937467834E0,5.366672783E0
1.179249917E1,2.018819909E0,6.546191812E-2,3.405227777E0,3.959229129E0
1.180252417E1,2.169489792E0,-3.720355278E-1,1.138777993E0,2.478288060E0
1.181255017E1,2.349726853E0,-9.099583179E-1,-1.474447932E0,2.919458362E0
1.182257517E1,2.271962685E0,-1.588391747E0,-3.960679935E0,4.834437747E0
1.183260017E1,2.019688659E0,-2.412483703E0,-5.819267131E0,6.615367702E0
1.184262617E1,1.711845911E0,-3.174208672E0,-7.090102150E0,7.954593995E0
1.185265117E1,1.217808521E0,-3.608922258E0,-8.158275014E0,9.003600872E0
1.186267717E1,6.867828141E-1,-3.661981063E0,-9.425720403E0,1.013538263E1
1.187270217E1,1.993789258E-1,-3.647580832E0,-1.080114164E1,1.140216027E1
1.188272717E1,-3.097604884E-1,-3.548362061E0,-1.215770620E1,1.266872705E1
1.189275317E1,-1.030575559E0,-3.403218089E0,-1.310075216E1,1.357474443E1
1.190277817E1,-9.203809067E-1,-3.493509039E0,-1.416217383E1,1.461570641E1
1.191280317E1,-1.152290177E0,-3.586485030E0,-1.468962542E1,1.516495112E1
1.192282917E1,-1.727626523E0,-3.720439186E0,-1.436537276E1,1.493955473E1
1.193285417E1,-1.539084224E0,-3.925722648E0,-1.376458772E1,1.439597005E1
1.194288017E1,-1.174072810E0,-3.917743830E0,-1.268759609E1,1.333050105E1
1.195290517E1,-9.040963380E-1,-3.829452336E0,-1.144742387E1,1.210477627E1
1.196293017E1,-7.740585011E-1,-3.993310906E0,-1.038478364E1,1.115300093E1
1.197295617E1,-8.270100821E-1,-4.176016223E0,-9.511906607E0,1.042110476E1
1.198298117E1,-9.782254377E-1,-4.169323207E0,-8.775716429E0,9.764905522E0
1.199300617E1,-1.049054369E0,-4.157182633E0,-8.271781164E0,9.316922568E0
1.200303246E1,-1.175056823E0,-4.090629332E0,-8.033643951E0,9.091393843E0
1.201305746E1,-1.224200405E0,-3.889541540E0,-7.891505740E0,8.882739604E0
1.202308246E1,-1.150896201E0,-3.635015166E0,-7.776603275E0,8.661030875E0
1.203310846E1,-9.704052984E-1,-3.383959115E0,-7.618834872E0,8.392824944E0
1.204313346E1,-8.098827834E-1,-3.135649208E0,-7.288751947E0,7.975845474E0
1.205315946E1,-7.821215922E-1,-2.964842976E0,-7.027277327E0,7.667113843E0
1.206318446E1,-8.929462825E-1,-2.793285668E0,-6.958961967E0,7.551619002E0
1.207320946E1,-9.007589666E-1,-2.683387835E0,-7.011434296E0,7.561226612E0
1.208323546E1,-8.215997996E-1,-2.558219998E0,-7.168705686E0,7.655707479E0
1.209326046E1,-7.476218504E-1,-2.359355901E0,-7.372525005E0,7.776864642E0
1.210328546E1,-6.121625118E-1,-2.182045665E0,-7.613264229E0,7.943416044E0
1.211331146E1,-3.839400934E-1,-2.075726473E0,-7.768185623E0,8.049891817E0
1.212333646E1,-4.279067332E-2,-1.814924137E0,-7.612930938E0,7.826397519E0
1.213336246E1,4.604851165E-1,-1.654735571E0,-7.365839884E0,7.563451166E0
1.214338746E1,6.744594417E-1,-1.457064891E0,-7.010357239E0,7.191873348E0
1.215341246E1,3.310313068E-1,-1.505036618E0,-6.514543172E0,6.694325185E0
1.216343846E1,-8.170838853E-2,-2.057120487E0,-6.107122634E0,6.444793854E0
1.217346346E1,-4.735834642E-1,-2.004126441E0,-5.425559483E0,5.803231840E0
1.218348846E1,-7.362079393E-1,-1.793907051E0,-4.389636937E0,4.798855809E0
1.219351446E1,-4.543637395E-1,-1.537584705E0,-2.381245245E0,2.870704104E0
1.220353946E1,-8.597303700E-2,-7.586294532E-1,4.957228500E-1,9.103027817E-1
1.221356446E1,6.919799656E-2,3.900860287E-1,2.782002296E0,2.810069795E0
1.222359046E1,-1.502345583E-1,1.784031396E0,3.119502414E0,3.596753225E0
1.223361546E1,1.177053282E-1,3.072182068E0,2.757682557E0,4.130008509E0
1.224364146E1,2.581706509E0,2.944453150E0,5.181423027E0,6.494779245E0
1.225366646E1,4.898099701E0,2.460628799E0,1.239844192E1,1.355608486E1
1.226369146E1,6.115505787E0,1.369136947E0,2.131215147E1,2.221444906E1
1.227371746E1,6.055916812E0,1.513636118E0,2.129888530E1,2.219476825E1
1.228374246E1,6.018926741E0,1.629784040E0,2.128844451E1,2.218291110E1
1.229376746E1,5.973824828E0,1.736771860E0,2.128188862E1,2.217254479E1
1.230379346E1,5.920999328E0,1.808256411E0,2.128186990E1,2.216407027E1
1.231381846E1,5.895004946E0,1.807173945E0,2.128615708E1,2.216116974E1
1.232384346E1,5.929033402E0,1.716530993E0,2.129130731E1,2.216798779E1
1.233386946E1,6.006317221E0,1.548778176E0,2.130125693E1,2.218598899E1
1.234389446E1,6.093026751E0,1.344564462E0,2.131922426E1,2.221355783E1
1.235392046E1,6.154793814E0,1.146862499E0,2.134452633E1,2.224377631E1
1.236394546E1,6.179502393E0,9.759584722E-1,2.137385596E1,2.227061884E1
1.237397046E1,2.514022941E0,9.227126155E0,6.430863084E0,1.152458973E1
1.238399646E1,1.911632260E0,8.717367648E0,4.493197559E0,9.991779667E0
1.239402146E1,1.121503856E0,6.925160383E0,2.851842610E0,7.572887395E0
1.240404646E1,5.793375953E-1,4.755246083E0,1.401869953E0,4.991316131E0
1.241407246E1,8.220819756E-2,2.886404917E0,6.383346856E-1,2.957289756E0
1.242409746E1,-5.745924336E-1,1.158521409E0,-4.890020603E-1,1.382552471E0
1.243412246E1,-1.013768907E0,-5.093962714E-1,-1.488398804E0,1.871508204E0
1.244414846E1,-1.011320240E0,-2.159682550E0,-2.290242105E0,3.306388701E0
1.245417346E1,-9.276978200E-1,-3.577368344E0,-3.350096135E0,4.988119047E0
1.246419846E1,-1.221926788E0,-4.720684945E0,-5.196753257E0,7.126304501E0
1.247422446E1,-1.539885000E0,-5.414101864E0,-7.661953409E0,9.507327430E0
1.248424946E1,-2.110625872E0,-5.365424379E0,-1.044874750E1,1.193393668E1
1.249427546E1,-2.544588092E0,-5.500028452E0,-1.297275193E1,1.431843337E1
1.250430046E1,-3.132076852E0,-5.673677309E0,-1.514974165E1,1.647771804E1
1.251432546E1,-3.126880431E0,-5.118225735E0,-1.630411885E1,1.737233166E1
1.252435146E1,-2.811248315E0,-4.702340183E0,-1.671300762E1,1.758805686E1
1.253437646E1,-2.768243213E0,-5.015674928E0,-1.635856344E1,1.733270791E1
1.254440146E1,-2.385702285E0,-5.147135539E0,-1.559196774E1,1.659198715E1
1.255442746E1,-2.087055161E0,-5.242876679E0,-1.458671443E1,1.564019798E1
1.256445246E1,-1.848390676E0,-5.392247311E0,-1.351579688E1,1.466866199E1
1.257447746E1,-1.694735204E0,-5.432687824E0,-1.248616302E1,1.372189824E1
1.258450346E1,-1.506094964E0,-5.368099480E0,-1.167539979E1,1.293830647E1
1.259452846E1,-1.404489505E0,-5.137127445E0,-1.074788637E1,1.199498773E1
1.260455446E1,-1.301321232E0,-4.888671358E0,-9.996154296E0,1.120337651E1
1.261457946E1,-1.216929831E0,-4.600496889E0,-9.407979366E0,1.054303398E1
1.262460446E1,-1.036690285E0,-4.300104956E0,-8.923683729E0,9.959807261E0
1.263463046E1,-8.396028650E-1,-3.960955631E0,-8.645504199E0,9.546666713E0
1.264465546E1,-6.398953805E-1,-3.684211884E0,-8.391726269E0,9.187162406E0
1.265468046E1,-5.070096938E-1,-3.309618199E0,-8.058016900E0,8.725953691E0
1.266470646E1,-4.658508139E-1,-3.066904371E0,-7.673377115E0,8.276692319E0
1.267473146E1,-5.755902244E-1,-2.851114047E0,-7.502328515E0,8.046433282E0
1.268475646E1,-8.704019040E-1,-2.733818316E0,-7.823012041E0,8.332519394E0
1.269478246E1,-9.682182936E-1,-2.535477253E0,-8.080778357E0,8.524380940E0
1.270480746E1,-8.774085494E-1,-2.411383257E0,-8.068654155E0,8.466864523E0
1.271483246E1,-6.748750325E-1,-2.209720244E0,-7.858875353E0,8.191473719E0
1.272485846E1,-1.774811762E-1,-2.027429788E0,-7.458534624E0,7.731216583E0
1.273488346E1,4.201058166E-1,-1.716691499E0,-7.291346941E0,7.502483510E0
1.274490946E1,1.233870091E0,-1.284373516E0,-6.741653121E0,6.972943248E0
1.275493446E1,1.814931300E0,-1.110989247E0,-5.965227667E0,6.333420391E0
1.276495946E1,1.772588541E0,-1.405515838E0,-4.663988296E0,5.183660071E0
1.277498546E1,1.422884846E0,-1.851845942E0,-3.197152269E0,3.959257166E0
1.278501046E1,8.885367510E-1,-2.131407315E0,-2.705202627E0,3.556756381E0
1.279503546E1,6.063939777E-1,-2.134348903E0,-2.698468974E0,3.493550300E0
1.280506146E1,6.520863866E-1,-1.608960205E0,-3.034193292E0,3.495754358E0
1.281508646E1,1.368107106E0,-6.141757447E-1,-3.362981059E0,3.682196424E0
1.282511146E1,1.929423729E0,6.574755460E-1,-2.827128183E0,3.485341272E0
1.283513746E1,2.190372538E0,1.987123615E0,-1.379127207E0,3.263186168E0
1.284516246E1,2.258806596E0,3.829998173E0,2.234332198E-1,4.452079924E0
1.285518746E1,3.293681906E0,4.911150101E0,1.616031243E0,6.130195167E0
1.286521346E1,5.900824680E0,3.302566165E0,7.358543143E0,9.993739659E0
1.287523846E1,7.433133150E0,-8.587620711E-1,1.815945675E1,1.964064179E1
1.288526446E1,7.560508311E0,-6.261390017E-1,1.813459439E1,1.965748838E1
1.289528946E1,7.709980685E0,-4.858992719E-1,1.811829235E1,1.969650776E1
1.290531446E1,7.771049005E0,-3.897273020E-1,1.811185339E1,1.971244083E1
1.291534046E1,7.700186598E0,-3.303423952E-1,1.811483080E1,1.968626665E1
1.292536546E1,7.525685218E0,-3.334740177E-1,1.812753680E1,1.963045423E1
1.293539046E1,7.329117615E0,-4.176652984E-1,1.814747463E1,1.957603752E1
1.294541646E1,7.199771942E0,-5.833264561E-1,1.816744170E1,1.955077809E1
1.295544146E1,7.159120345E0,-8.128433749E-1,1.818511316E1,1.956047185E1
1.296546646E1,7.162262639E0,-1.071885626E0,1.820584037E1,1.959335521E1
1.297549246E1,7.183258821E0,-1.313620120E0,1.822933682E1,1.963755397E1
1.298551746E1,7.211037773E0,-1.512814438E0,1.825211290E1,1.968317298E1
1.299554246E1,7.237609860E0,-1.673018937E0,1.827304008E1,1.972526255E1
1.300556779E1,1.457186221E0,3.588442093E0,9.106561831E0,9.895947489E0
1.301559279E1,1.490920854E0,1.886427398E0,8.301467478E0,8.642674101E0
1.302561779E1,1.663585478E0,3.784927543E-1,7.445225192E0,7.638203425E0
1.303564379E1,1.880635439E0,-5.945997052E-1,5.913782110E0,6.234032187E0
1.304566879E1,2.062096321E0,-1.103944521E0,3.775948266E0,4.441702382E0
1.305569479E1,2.423742809E0,-1.278652747E0,1.467928287E0,3.108745005E0
1.306571979E1,2.954111581E0,-1.535687430E0,-1.046755682E0,3.490101513E0
1.307574479E1,3.172873168E0,-2.143707664E0,-3.581296211E0,5.242927545E0
1.308577079E1,2.674953519E0,-2.865162275E0,-6.261942871E0,7.387588220E0
1.309579579E1,2.186959957E0,-3.476385175E0,-9.129256044E0,1.001056260E1
1.310582079E1,1.532776686E0,-4.074951193E0,-1.150837992E1,1.230436670E1
1.311584679E1,6.325787596E-1,-4.566713724E0,-1.280716346E1,1.361170327E1
1.312587179E1,4.581810942E-1,-4.531796491E0,-1.409691890E1,1.481452773E1
1.313589679E1,-1.012184550E-1,-4.466721951E0,-1.526219414E1,1.590271738E1
1.314592279E1,-8.937346333E-1,-4.624183375E0,-1.652409110E1,1.718218322E1
1.315594779E1,-1.284302473E0,-4.715561615E0,-1.741719365E1,1.808990295E1
1.316597279E1,-1.575110235E0,-4.757578830E0,-1.761750055E1,1.831643672E1
1.317599879E1,-1.721505511E0,-4.904920186E0,-1.695689265E1,1.773578393E1
1.318602379E1,-1.772663532E0,-4.897321729E0,-1.597706537E1,1.680454444E1
1.319604879E1,-1.688406178E0,-4.670170265E0,-1.521065444E1,1.600078792E1
1.320607479E1,-1.481241374E0,-4.329793024E0,-1.384695511E1,1.458353007E1
1.321609979E1,-1.305744359E0,-4.208340508E0,-1.236060341E1,1.312248509E1
1.322612579E1,-1.163273879E0,-4.173992794E0,-1.079360692E1,1.163088012E1
1.323615079E1,-1.148773808E0,-4.006554557E0,-9.421422114E0,1.030220148E1
1.324617579E1,-9.837847511E-1,-3.885983509E0,-8.266035690E0,9.186732080E0
1.325620179E1,-8.308935104E-1,-3.667321909E0,-7.334883555E0,8.242581560E0
1.326622679E1,-7.485255376E-1,-3.489595790E0,-6.524838949E0,7.437142769E0
1.327625179E1,-7.680578692E-1,-3.373708946E0,-5.921660063E0,6.858416934E0
1.328627779E1,-6.808398503E-1,-3.158808568E0,-5.727882752E0,6.576492628E0
1.329630279E1,-7.387223882E-1,-2.898730847E0,-5.720910532E0,6.455785669E0
1.330632779E1,-6.932305388E-1,-2.568388891E0,-5.962011114E0,6.528611383E0
1.331635379E1,-5.601161894E-1,-2.111390834E0,-6.368693148E0,6.732900847E0
1.332637879E1,-2.952335379E-1,-1.718188386E0,-6.712657363E0,6.935351689E0
1.333640379E1,1.233708233E-1,-1.425536266E0,-6.846953874E0,6.994866071E0
1.334642979E1,6.738200486E-1,-1.169439915E0,-6.805653235E0,6.938194227E0
1.335645479E1,1.318263540E0,-9.685892263E-1,-6.693907682E0,6.890891372E0
1.336647979E1,1.824703459E0,-7.743634334E-1,-6.611960708E0,6.902695550E0
1.337650579E1,1.796218602E0,-9.167720783E-1,-6.492444205E0,6.798433942E0
1.338653079E1,1.365645721E0,-1.320626984E0,-7.284554231E0,7.528198603E0
1.339655579E1,9.947612174E-1,-1.599625856E0,-8.063768222E0,8.280864127E0
1.340658179E1,3.248459394E-1,-1.869976695E0,-7.943199220E0,8.166807918E0
1.341660679E1,-4.678439105E-1,-2.265138546E0,-7.584810508E0,7.929633094E0
1.342663279E1,-1.517310508E0,-1.998290627E0,-6.816452458E0,7.263568043E0
1.343665779E1,-2.175667814E0,-1.579075378E0,-5.895736433E0,6.479715856E0
1.344668279E1,-2.842136816E0,-9.762207198E-1,-4.206111549E0,5.169344537E0
1.345670879E1,-3.895263917E0,1.756839797E-1,-2.430772331E0,4.594844934E0
1.346673379E1,-4.364696808E0,1.877682741E0,-1.955936320E0,5.138283526E0
1.347675879E1,-4.415663771E0,4.102353877E0,-2.064992740E0,6.371152870E0
1.348678479E1,-3.042470611E0,6.403264811E0,-1.747402391E0,7.301495927E0
1.349680979E1,8.693079630E-1,5.762051541E0,3.663370653E0,6.883111131E0
1.350683479E1,3.841114315E0,8.715196723E-1,1.704400914E1,1.749319735E1
1.351686079E1,2.704791568E0,-5.933542190E0,3.240611115E1,3.305569331E1
1.352688579E1,2.714628631E0,-5.816631791E0,3.240006746E1,3.302978634E1
1.353691079E1,2.729200185E0,-5.802894343E0,3.239889802E1,3.302742359E1
1.354693679E1,2.709304449E0,-5.846421601E0,3.240159242E1,3.303610400E1
1.355696179E1,2.665568738E0,-5.936155896E0,3.240801734E1,3.305484520E1
1.356698679E1,2.611752134E0,-6.082997022E0,3.241979129E1,3.308877407E1
1.357701279E1,2.552927683E0,-6.274980408E0,3.243830358E1,3.313814053E1
1.358703779E1,2.497598697E0,-6.471655599E0,3.246128079E1,3.319420245E1
1.359706279E1,2.461123474E0,-6.644989876E0,3.248428842E1,3.324818812E1
1.360708879E1,2.447306211E0,-6.792933202E0,3.250530331E1,3.329756737E1
1.361711379E1,2.454853504E0,-6.916914055E0,3.252336419E1,3.334125409E1
1.362713879E1,2.485696105E0,-7.016377532E0,3.253735541E1,3.337795284E1
1.363716479E1,2.536750191E0,-7.086466352E0,3.254607010E1,3.340508623E1
1.364718979E1,2.381707175E0,3.973978257E0,8.314081677E0,9.517824667E0
1.365721479E1,1.754983891E0,2.827158004E0,7.757240805E0,8.440827906E0
1.366724079E1,1.273015592E0,1.426716088E0,6.976915843E0,7.234185661E0
1.367726579E1,8.523660211E-1,-5.510489121E-2,5.852942415E0,5.914938656E0
1.368729179E1,5.715241802E-1,-1.241814850E0,4.595406303E0,4.794424168E0
1.369731679E1,5.615559932E-1,-2.022954036E0,2.597710338E0,3.340028019E0
1.370734179E1,8.050382922E-1,-2.682512507E0,-2.879478890E-1,2.815470474E0
1.371736779E1,9.671546119E-1,-3.119404181E0,-3.274828436E0,4.624994246E0
1.372739279E1,9.549383166E-1,-3.524853038E0,-5.979858570E0,7.006797032E0
1.373741779E1,1.086578729E0,-4.025710036E0,-8.015639205E0,9.035345400E0
1.374744379E1,1.260017378E0,-4.475890093E0,-9.401119997E0,1.048819780E1
1.375746879E1,1.206013810E0,-4.952471205E0,-1.053169376E1,1.170034247E1
1.376749379E1,1.002992489E0,-5.466867138E0,-1.174680482E1,1.299538586E1
1.377751979E1,7.161234114E-1,-5.751789093E0,-1.307096761E1,1.429846512E1
1.378754479E1,4.084069633E-1,-5.774813674E0,-1.428373042E1,1.541233999E1
1.379756979E1,1.202403885E-1,-5.620223817E0,-1.527032060E1,1.627218684E1
1.380759579E1,-3.066265270E-2,-5.376308970E0,-1.609947098E1,1.697346765E1
1.381762079E1,-1.070832762E-1,-5.154112437E0,-1.629775708E1,1.709366045E1
1.382764579E1,-1.997688802E-1,-5.118504648E0,-1.581371053E1,1.662264835E1
1.383767179E1,-2.695331065E-1,-5.178935037E0,-1.498413096E1,1.585617220E1
1.384769679E1,-2.051972891E-1,-5.038068595E0,-1.366952486E1,1.456983703E1
1.385772179E1,-1.277900210E-1,-4.866930825E0,-1.211838952E1,1.305981281E1
1.386774779E1,-9.609730817E-2,-4.701461347E0,-1.084816612E1,1.182352239E1
1.387777279E1,-6.904911183E-2,-4.358368952E0,-9.603510842E0,1.054644813E1
1.388779779E1,1.453910172E-1,-3.992037967E0,-8.562211196E0,9.448225561E0
1.389782379E1,4.004705010E-1,-3.662260852E0,-7.844505236E0,8.666532961E0
1.390784879E1,5.958149759E-1,-3.372969857E0,-7.115658576E0,7.897120875E0
1.391787379E1,6.982073964E-1,-3.138906400E0,-6.419725893E0,7.180049268E0
1.392789979E1,7.789089127E-1,-2.750709168E0,-6.349885579E0,6.963773897E0
1.393792479E1,8.700321407E-1,-2.381970739E0,-6.557600899E0,7.030851305E0
1.394794979E1,8.990107222E-1,-1.892549433E0,-7.272141176E0,7.567958835E0
1.395797579E1,1.010753645E0,-1.466605208E0,-8.175952901E0,8.367721291E0
1.396800079E1,1.141338562E0,-1.019357676E0,-8.764101520E0,8.896697097E0
1.397802579E1,1.394351018E0,-6.271599256E-1,-9.101691685E0,9.229211009E0
1.398805179E1,1.742136681E0,-3.721423857E-1,-9.228733554E0,9.399098531E0
1.399807679E1,2.102604954E0,-6.907184288E-2,-8.949260620E0,9.193203150E0
1.400810246E1,2.116524397E0,5.194505587E-2,-8.537830646E0,8.796415517E0
1.401812846E1,1.661844908E0,-3.537208790E-1,-8.019822888E0,8.197829354E0
1.402815346E1,1.082091430E0,-9.870167264E-1,-7.077679741E0,7.227632696E0
1.403817846E1,4.733227881E-1,-1.424257187E0,-6.276141665E0,6.453099813E0
1.404820446E1,-1.841082460E-1,-1.556349736E0,-6.183916456E0,6.379415575E0
1.405822946E1,-6.543763024E-1,-1.215634819E0,-6.304272619E0,6.453667920E0
1.406825546E1,-5.623395932E-1,-4.479451047E-1,-6.425415233E0,6.465511701E0
1.407828046E1,-5.940089537E-2,3.913677384E-1,-5.424083646E0,5.438509039E0
1.408830546E1,4.662403116E-1,8.634843555E-1,-2.108605952E0,2.325769619E0
1.409833146E1,2.737856951E-1,9.866859202E-1,2.437349280E0,2.643705585E0
1.410835646E1,-8.956400947E-1,1.776448873E0,5.291795070E0,5.653409311E0
1.411838146E1,-1.165868143E0,2.826774134E0,4.417262108E0,5.372346327E0
1.412840746E1,2.372355139E0,2.403514659E0,6.700864114E0,7.503767820E0
1.413843246E1,6.216695947E0,-1.277764847E0,1.746509638E1,1.858250745E1
1.414845746E1,6.154163484E0,-1.034533028E0,1.746428829E1,1.854576373E1
1.415848346E1,6.156557919E0,-9.710365053E-1,1.746428479E1,1.854312165E1
1.416850846E1,6.159487959E0,-1.019377849E0,1.746403803E1,1.854645647E1
1.417853346E1,6.124364904E0,-1.120063467E0,1.746617811E1,1.854264721E1
1.418855946E1,6.047093949E0,-1.235168904E0,1.747204638E1,1.853012121E1
1.419858446E1,5.941803721E0,-1.341379922E0,1.748141128E1,1.851226815E1
1.420860946E1,5.836191312E0,-1.439161009E0,1.749273032E1,1.849670045E1
1.421863546E1,5.757688349E0,-1.538239447E0,1.750389733E1,1.849063486E1
1.422866046E1,5.708429650E0,-1.649912641E0,1.751482461E1,1.849533622E1
1.423868546E1,5.671905017E0,-1.779527871E0,1.752746863E1,1.850808965E1
1.424871146E1,5.641838635E0,-1.922751910E0,1.754261409E1,1.852756398E1
1.425873646E1,5.622594278E0,-2.066634053E0,1.755897343E1,1.855268419E1
1.426876146E1,5.621606684E0,-2.201930729E0,1.757463461E1,1.858275389E1
1.427878746E1,5.639010336E0,-2.337754094E0,1.759045484E1,1.861954976E1
1.428881246E1,1.097005557E0,1.107263985E0,8.451069075E0,8.593603624E0
1.429883746E1,5.548154692E-1,3.533837870E-2,5.874022213E0,5.900271685E0
1.430886346E1,5.076463459E-1,-7.836033498E-1,2.756530071E0,2.910360296E0
1.431888846E1,7.766863860E-1,-1.241394289E0,-5.388636070E-1,1.560344676E0
1.432891346E1,1.067140099E0,-1.724513319E0,-3.995691893E0,4.480880257E0
1.433893946E1,1.257671329E0,-2.737424586E0,-7.009011794E0,7.628989243E0
1.434896446E1,8.608626102E-1,-4.125638951E0,-9.246710234E0,1.016187145E1
1.435898946E1,2.332563228E-1,-5.417211413E0,-1.096591735E1,1.223323062E1
1.436901546E1,-3.656414879E-1,-6.368186195E0,-1.248036258E1,1.401595302E1
1.437904046E1,-8.637876067E-1,-6.862394616E0,-1.397475653E1,1.559270371E1
1.438906546E1,-1.333034337E0,-6.767855664E0,-1.543200663E1,1.690348129E1
1.439909146E1,-1.832499844E0,-6.320789834E0,-1.680104798E1,1.804399216E1
1.440911646E1,-2.210721141E0,-5.800911552E0,-1.788360733E1,1.893043248E1
1.441914146E1,-2.419318513E0,-5.255877378E0,-1.810393860E1,1.900605014E1
1.442916746E1,-2.433102447E0,-4.798480688E0,-1.742883546E1,1.824033195E1
1.443919246E1,-2.246251016E0,-4.416137981E0,-1.633457816E1,1.706945699E1
1.444921746E1,-1.895460908E0,-3.886964964E0,-1.526232277E1,1.586315748E1
1.445924346E1,-1.335464294E0,-3.336918849E0,-1.382099581E1,1.428070087E1
1.446926846E1,-7.990188029E-1,-2.929630458E0,-1.172140100E1,1.210836104E1
1.447929346E1,-1.868443409E-1,-2.785182597E0,-9.356641397E0,9.764163617E0
1.448931946E1,3.905201479E-1,-2.458538712E0,-7.313610799E0,7.725659940E0
1.449934446E1,9.014202136E-1,-2.138842927E0,-5.995508058E0,6.429099808E0
1.450936946E1,1.241105582E0,-1.779665573E0,-5.299097072E0,5.726079147E0
1.451939546E1,1.410157504E0,-1.516867728E0,-4.892139634E0,5.312481726E0
1.452942046E1,1.456723998E0,-1.236954059E0,-5.029480205E0,5.380313307E0
1.453944546E1,1.568334627E0,-1.025703513E0,-5.430023832E0,5.744292822E0
1.454947146E1,1.655924748E0,-6.271860918E-1,-6.104360409E0,6.355994428E0
1.455949646E1,1.691269851E0,-3.072363916E-1,-6.856650311E0,7.068835930E0
1.456952146E1,1.963168011E0,7.715430290E-2,-7.225504954E0,7.487850377E0
1.457954746E1,2.184142038E0,3.147282828E-1,-7.348409919E0,7.672591392E0
1.458957246E1,2.288546266E0,4.267821309E-1,-7.217882524E0,7.584023676E0
1.459959746E1,2.372801866E0,3.971351396E-1,-7.076124966E0,7.473917952E0
1.460962346E1,2.278083404E0,2.684553185E-1,-6.999863241E0,7.366126366E0
1.461964846E1,2.135738494E0,3.370706400E-1,-7.614675747E0,7.915698470E0
1.462967346E1,2.229704711E0,5.080746545E-1,-8.356056499E0,8.663336722E0
1.463969946E1,2.058160707E0,6.457353602E-1,-8.729042199E0,8.991617061E0
1.464972446E1,1.653178896E0,4.689990279E-1,-8.839624157E0,9.005104985E0
1.465974946E1,1.002846016E0,-1.983466181E-1,-7.593929826E0,7.662428578E0
1.466977546E1,5.224571970E-1,-9.412229414E-1,-5.770794883E0,5.870343749E0
1.467980046E1,3.981481331E-1,-1.132783427E0,-4.174390989E0,4.343645975E0
1.468982546E1,5.449189105E-1,-6.151178773E-1,-2.674035214E0,2.797457943E0
1.469985146E1,4.299963088E-1,2.645870930E-1,-1.134831707E0,1.242073330E0
1.470987646E1,2.000268155E-1,1.037867037E0,1.094012294E0,1.521197428E0
1.471990146E1,-1.921883671E-1,1.691030847E0,3.624179690E0,4.003898116E0
1.472992746E1,-8.787238075E-1,2.578701040E0,6.109615302E0,6.689488301E0
1.473995246E1,-1.610047202E0,4.388331254E0,8.227256371E0,9.462423082E0
1.474997746E1,-1.424580538E0,6.420862007E0,8.721292300E0,1.092327048E1
1.476000346E1,8.126953673E-1,6.255170041E0,1.118348757E1,1.283970483E1
1.477002846E1,5.465551515E0,2.869617561E0,1.941059951E1,2.036856234E1
1.478005346E1,5.530069692E0,2.885940063E0,1.940718240E1,2.038502022E1
1.479007946E1,5.710606568E0,2.832797644E0,1.942189516E1,2.044127642E1
1.480010446E1,5.906921571E0,2.766524717E0,1.944410757E1,2.050899072E1
1.481012946E1,6.028272931E0,2.715906540E0,1.946242222E1,2.055485591E1
1.482015546E1,6.038627180E0,2.673707770E0,1.947323723E1,2.056260440E1
1.483018046E1,5.970927533E0,2.626536234E0,1.948105963E1,2.054415617E1
1.484020546E1,5.903312670E0,2.567629337E0,1.949260320E1,2.052811245E1
1.485023146E1,5.904758686E0,2.497822061E0,1.951079740E1,2.053719809E1
1.486025646E1,5.988541685E0,2.426705593E0,1.953406230E1,2.057501207E1
1.487028146E1,6.121148350E0,2.364054139E0,1.955954798E1,2.063087798E1
1.488030746E1,6.260388097E0,2.313041275E0,1.958461733E1,2.069057406E1
1.489033246E1,-1.230913008E0,5.972396353E0,6.789569299E0,9.125947420E0
1.490035746E1,-1.852915397E0,6.351532155E0,4.070686526E0,7.768252376E0
1.491038346E1,-2.099893600E0,6.169794846E0,2.289111253E0,6.907673407E0
1.492040846E1,-1.656092125E0,5.028245857E0,1.502207589E0,5.502956039E0
1.493043346E1,-7.574097240E-1,3.299624723E0,8.459400773E-1,3.489528252E0
1.494045946E1,4.843926271E-1,1.573454449E0,-5.377391875E-2,1.647205742E0
1.495048446E1,1.627214335E0,-5.702087760E-2,2.670768374E-1,1.649972093E0
1.496050946E1,2.154749254E0,-1.432878907E0,1.014984251E0,2.779618560E0
1.497053546E1,2.424049788E0,-2.350988243E0,7.605496788E-1,3.461444627E0
1.498056046E1,2.530831347E0,-2.768830858E0,-1.013013155E0,3.885579401E0
1.499058546E1,2.486039629E0,-2.662461235E0,-3.666279058E0,5.168239062E0
1.500061146E1,2.393522936E0,-2.613155758E0,-6.517428773E0,7.418518240E0
1.501063567E1,2.221419061E0,-2.701013682E0,-8.632123430E0,9.313631540E0
1.502066067E1,1.743703442E0,-2.984895417E0,-9.591842138E0,1.019576078E1
1.503068667E1,1.241166539E0,-3.399852724E0,-9.684737438E0,1.033893767E1
1.504071167E1,7.568204708E-1,-3.580866441E0,-9.261815346E0,9.958745162E0
1.505073667E1,3.113296618E-1,-3.625731542E0,-9.243679038E0,9.934206436E0
1.506076267E1,-8.469757654E-2,-3.434145182E0,-9.672660014E0,1.026454473E1
1.507078767E1,-2.534429578E-1,-3.111619783E0,-1.035322271E1,1.081367798E1
1.508081267E1,-2.529997388E-1,-2.885060057E0,-1.122426020E1,1.159187636E1
1.509083867E1,-2.159708570E-1,-2.575974483E0,-1.177209402E1,1.205257174E1
1.510086367E1,2.312771134E-2,-2.418283263E0,-1.176893653E1,1.201484481E1
1.511088867E1,1.351212600E-1,-2.307252386E0,-1.118721575E1,1.142346128E1
1.512091467E1,1.429338345E-1,-2.170207684E0,-1.031495385E1,1.054175054E1
1.513093967E1,2.919902153E-1,-2.140107826E0,-9.414554560E0,9.659148894E0
1.514096467E1,3.173464467E-1,-2.149657499E0,-8.520325837E0,8.793047736E0
1.515098967E1,1.736946838E-1,-2.191130776E0,-7.866443989E0,8.167751524E0
1.516101567E1,1.043916201E-1,-2.118195824E0,-7.563669900E0,7.855364633E0
1.517104067E1,3.693448585E-2,-2.013470291E0,-7.569725862E0,7.833018345E0
1.518106567E1,-1.344483186E-2,-1.907494478E0,-7.695466141E0,7.928361437E0
1.519109167E1,-3.198405035E-2,-1.737881370E0,-7.929224959E0,8.117503501E0
1.520111667E1,-6.801748026E-2,-1.616329304E0,-8.181684927E0,8.340090829E0
1.521114167E1,-6.728957500E-2,-1.585325467E0,-8.357738743E0,8.507031304E0
1.522116767E1,5.988963123E-2,-1.506741812E0,-8.539170243E0,8.671290913E0
1.523119267E1,3.380531915E-1,-1.313527003E0,-8.713579822E0,8.818509311E0
1.524121767E1,4.189417091E-1,-1.219974768E0,-8.878921539E0,8.972128972E0
1.525124367E1,4.679181701E-1,-1.313393101E0,-8.801685083E0,8.911431375E0
1.526126867E1,4.983223759E-1,-1.363076454E0,-8.378703350E0,8.503468259E0
1.527129367E1,4.467930570E-1,-1.508569652E0,-7.938747734E0,8.093152786E0
1.528131967E1,3.452364594E-1,-1.580187372E0,-7.591851726E0,7.762241491E0
1.529134467E1,-8.155356523E-2,-1.565771647E0,-7.295203180E0,7.461788074E0
1.530136967E1,-6.699526271E-1,-1.731315239E0,-6.834106371E0,7.081758177E0
1.531139567E1,-1.262136701E0,-1.795975065E0,-6.167215639E0,6.546225189E0
1.532142067E1,-1.316004322E0,-1.506676615E0,-4.846030245E0,5.242704544E0
1.533144567E1,-1.055464964E0,-1.045378224E0,-2.259210346E0,2.703858967E0
1.534147167E1,-1.376384132E0,-7.861913274E-1,1.180479750E0,1.976376109E0
1.535149667E1,-1.992992757E0,-1.041881736E-1,4.142809008E0,4.598449932E0
1.536152167E1,-2.839905811E0,1.099322589E0,6.824656686E0,7.473253245E0
1.537154767E1,-4.493243752E0,2.874671017E0,8.872426452E0,1.035243566E1
1.538157267E1,-6.817549396E0,5.574824865E0,8.227437050E0,1.205190327E1
1.539159767E1,-5.018585088E0,6.425193039E0,6.937171149E0,1.070484215E1
1.540162367E1,-7.517814866E-1,4.511556646E0,1.232289004E1,1.314431199E1
1.541164867E1,1.512760059E0,1.010952158E0,2.284092237E1,2.291327567E1
1.542167367E1,1.555169768E0,9.651582263E-1,2.284716486E1,2.292036268E1
1.543169967E1,1.617762311E0,9.060978399E-1,2.285567606E1,2.293076747E1
1.544172467E1,1.630422702E0,8.805365905E-1,2.285982057E1,2.293479931E1
1.545174967E1,1.593352963E0,8.784323238E-1,2.286084734E1,2.293313668E1
1.546177567E1,1.556966909E0,8.619408368E-1,2.286448899E1,2.293364220E1
1.547180067E1,1.572142480E0,8.126189880E-1,2.287284115E1,2.294120406E1
1.548182567E1,1.646751637E0,7.383144718E-1,2.288507586E1,2.295612329E1
1.549185167E1,1.739778499E0,6.558184451E-1,2.289997223E1,2.297532710E1
1.550187667E1,1.807896515E0,5.744139473E-1,2.291618773E1,2.299456678E1
1.551190167E1,1.833177244E0,4.914431266E-1,2.293363114E1,2.301202930E1
1.552192667E1,1.823363277E0,4.039366208E-1,2.295269774E1,2.302855080E1
1.553195267E1,-2.071197439E-1,4.256807201E0,8.437268477E0,9.452555501E0
1.554197767E1,-7.453090391E-2,3.421735051E0,6.087909853E0,6.984015463E0
1.555200267E1,1.475667479E-1,2.533788577E0,3.516151212E0,4.336493957E0
1.556202867E1,5.235946815E-2,1.485024668E0,1.436038742E0,2.066457609E0
1.557205367E1,-1.949990872E-1,4.067257427E-1,6.471698284E-3,4.511012709E-1
1.558207867E1,-2.086959888E-1,-5.976235928E-1,-1.151942999E0,1.314412662E0
1.559210467E1,-2.793645418E-1,-1.261101159E0,-2.645901920E0,2.944353520E0
1.560212967E1,-2.379416236E-1,-1.598134816E0,-4.832209767E0,5.095184230E0
1.561215467E1,1.082520250E-1,-1.765349981E0,-7.043015108E0,7.261696831E0
1.562218067E1,7.985139690E-1,-1.893508084E0,-8.589677907E0,8.832075859E0
1.563220567E1,1.652038397E0,-1.847757861E0,-9.235640286E0,9.562452168E0
1.564223067E1,1.830842451E0,-1.855385700E0,-9.696737679E0,1.004097415E1
1.565225667E1,1.329047706E0,-2.011566438E0,-1.080701810E1,1.107268745E1
1.566228167E1,3.789556345E-1,-2.189386405E0,-1.222730210E1,1.242754750E1
1.567230667E1,-5.160870576E-1,-2.580900470E0,-1.328086277E1,1.353915467E1
1.568233267E1,-1.292625253E0,-3.111979387E0,-1.355283548E1,1.396548049E1
1.569235767E1,-1.857523296E0,-3.477176596E0,-1.293898192E1,1.352621170E1
1.570238267E1,-1.888057163E0,-3.750692387E0,-1.181664396E1,1.254055532E1
1.571240867E1,-1.589268829E0,-3.885620104E0,-1.056451418E1,1.136805959E1
1.572243367E1,-1.264447813E0,-3.674262847E0,-9.562850474E0,1.032216765E1
1.573245867E1,-7.617816871E-1,-3.342490661E0,-8.642681163E0,9.297768165E0
1.574248467E1,-9.343835995E-2,-2.899009467E0,-7.631686467E0,8.164289617E0
1.575250967E1,3.678150807E-1,-2.406322784E0,-6.711323029E0,7.139154997E0
1.576253467E1,7.348709735E-1,-1.940649506E0,-6.071506659E0,6.416334542E0
1.577256067E1,9.432791148E-1,-1.615532329E0,-6.024961653E0,6.308714854E0
1.578258567E1,8.999276387E-1,-1.316658771E0,-6.398136803E0,6.593907387E0
1.579261067E1,8.073574441E-1,-1.159615861E0,-6.891657591E0,7.035018077E0
1.580263567E1,7.473357023E-1,-1.142098042E0,-7.287634544E0,7.414345273E0
1.581266167E1,7.595335058E-1,-1.186258699E0,-7.496030479E0,7.627225825E0
1.582268667E1,8.003605197E-1,-1.234139210E0,-7.816104140E0,7.953311290E0
1.583271167E1,8.279603277E-1,-1.177538308E0,-8.301148805E0,8.425033309E0
1.584273767E1,8.870472459E-1,-1.046143333E0,-8.797505493E0,8.903784116E0
1.585276267E1,1.095863084E0,-8.310891728E-1,-9.346970102E0,9.447617435E0
1.586278767E1,1.263244164E0,-5.538244392E-1,-9.910537026E0,1.000606074E1
1.587281367E1,1.514304454E0,-2.551084641E-1,-1.027238027E1,1.038652949E1
1.588283867E1,1.793509148E0,-8.738780737E-2,-1.015138384E1,1.030897209E1
1.589286367E1,1.913220656E0,-8.149907649E-2,-9.881450636E0,1.006529294E1
1.590288967E1,1.535644307E0,-3.641980661E-1,-9.400558664E0,9.532121845E0
1.591291467E1,1.137128932E0,-7.480626574E-1,-8.684715627E0,8.790730656E0
1.592293967E1,4.421668131E-1,-6.995961101E-1,-7.495531712E0,7.541083599E0
1.593296567E1,-1.653875080E-1,-7.655614735E-1,-5.951473262E0,6.002788634E0
1.594299067E1,-9.493656278E-1,-5.894591255E-1,-4.657449939E0,4.789634338E0
1.595301567E1,-1.459600244E0,-3.276817659E-1,-3.693049951E0,3.984523328E0
1.596304167E1,-1.060082364E0,1.654386346E-1,-1.531438404E0,1.869879180E0
1.597306667E1,-1.904965484E-1,1.208472126E0,2.024251095E0,2.365224368E0
1.598309167E1,-5.031680000E-1,1.855936361E0,5.927278653E0,6.231397118E0
1.599311767E1,-2.274465732E0,4.094376521E0,8.425117963E0,9.639487857E0
1.600314267E1,-4.007037245E0,7.675968016E0,7.942105790E0,1.174963305E1
1.601316833E1,-2.657041158E0,7.354774028E0,5.990319239E0,9.850710294E0
1.602319333E1,1.864128164E0,5.758770669E0,9.424829872E0,1.120115313E1
1.603321933E1,5.833786937E0,2.611690738E0,1.943200149E1,2.045621374E1
1.604324433E1,5.924181967E0,2.625464147E0,1.941997377E1,2.047252733E1
1.605326933E1,6.114117073E0,2.618555077E0,1.940551945E1,2.051373792E1
1.606329533E1,6.280929950E0,2.611584612E0,1.939616157E1,2.055435571E1
1.607332033E1,6.345929938E0,2.592713308E0,1.939693223E1,2.057265100E1
1.608334533E1,6.299075614E0,2.537346023E0,1.941203325E1,2.056559052E1
1.609337133E1,6.186072325E0,2.434401113E0,1.944334158E1,2.054841433E1
1.610339633E1,6.078665405E0,2.303173953E0,1.948402885E1,2.053977029E1
1.611342133E1,6.035541605E0,2.177724718E0,1.952078094E1,2.054826357E1
1.612344733E1,6.081020079E0,2.085232877E0,1.954276062E1,2.057295540E1
1.613347233E1,6.196590296E0,2.030427801E0,1.955002286E1,2.060882729E1
1.614349733E1,6.330783311E0,2.002652358E0,1.955010940E1,2.064694194E1
1.615352333E1,9.247526506E-1,5.747618274E0,8.775580189E0,1.053095869E1
1.616354833E1,-4.962926611E-2,5.101062988E0,6.173796680E0,8.008687291E0
1.617357333E1,-4.199422042E-1,4.181128151E0,4.415084020E0,6.095174400E0
1.618359833E1,-1.910176449E-1,2.851933241E0,3.301701069E0,4.367063190E0
1.619362433E1,8.070059533E-1,1.382823232E0,2.963775274E0,3.368593561E0
1.620364933E1,2.021101054E0,1.484163666E-1,2.757538131E0,3.422118267E0
1.621367433E1,2.711818167E0,-6.487415600E-1,2.022763563E0,3.444763536E0
1.622370033E1,3.001077879E0,-1.262257446E0,8.174220371E-1,3.356775399E0
1.623372533E1,2.837326312E0,-1.937634828E0,-7.794244909E-1,3.523116783E0
1.624375033E1,2.292293454E0,-2.708733176E0,-2.741310938E0,4.484041743E0
1.625377633E1,1.665265968E0,-3.399735487E0,-4.849909873E0,6.152474129E0
1.626380133E1,9.684946476E-1,-3.624346336E0,-7.353397593E0,8.255078704E0
1.627382633E1,2.913823424E-1,-3.593469822E0,-1.005807046E1,1.068469515E1
1.628385233E1,-2.666776553E-1,-3.515600697E0,-1.266988838E1,1.315129791E1
1.629387733E1,-9.138333408E-1,-3.383683418E0,-1.488851496E1,1.529549876E1
1.630390233E1,-1.281347144E0,-3.233823667E0,-1.641985980E1,1.678425637E1
1.631392833E1,-1.104862680E0,-3.185910412E0,-1.718678646E1,1.751446189E1
1.632395333E1,-1.205658738E0,-3.450103403E0,-1.701855972E1,1.740655628E1
1.633397833E1,-1.196831342E0,-3.677107809E0,-1.641965983E1,1.686886943E1
1.634400433E1,-1.191643839E0,-4.044569645E0,-1.525752104E1,1.582941903E1
1.635402933E1,-1.128027448E0,-4.251398527E0,-1.364256802E1,1.433410261E1
1.636405433E1,-8.327888122E-1,-4.291525921E0,-1.190675072E1,1.268390495E1
1.637407933E1,-5.146088449E-1,-4.054196793E0,-1.015004600E1,1.094188136E1
1.638410533E1,-7.003878049E-2,-3.696655344E0,-8.751473873E0,9.500445311E0
1.639413033E1,3.641994183E-1,-3.239528210E0,-7.569691363E0,8.241808756E0
1.640415533E1,5.185305359E-1,-2.856212234E0,-6.587967244E0,7.199175970E0
1.641418133E1,4.385275792E-1,-2.593077297E0,-6.068914003E0,6.614232645E0
1.642420633E1,3.042602685E-1,-2.323748112E0,-6.103921283E0,6.538366358E0
1.643423133E1,1.166753046E-1,-2.053959775E0,-6.473666457E0,6.792696171E0
1.644425733E1,5.232881594E-2,-1.811741351E0,-6.725437038E0,6.965389320E0
1.645428233E1,4.540861795E-2,-1.629163358E0,-6.923514392E0,7.112755213E0
1.646430733E1,1.059389761E-1,-1.499891945E0,-7.015253112E0,7.174585364E0
1.647433333E1,1.407125320E-1,-1.468720146E0,-7.111936823E0,7.263372788E0
1.648435833E1,1.336408546E-1,-1.311568185E0,-7.396950579E0,7.513517742E0
1.649438333E1,2.526668495E-1,-1.055824714E0,-7.932053842E0,8.006003030E0
1.650440933E1,4.010784287E-1,-7.039739205E-1,-8.325363294E0,8.364694685E0
1.651443433E1,5.572478743E-1,-5.777926147E-1,-8.505644647E0,8.543439610E0
1.652445933E1,7.836167984E-1,-5.537661132E-1,-8.479614013E0,8.533731072E0
1.653448533E1,8.791607407E-1,-5.503370136E-1,-8.598769158E0,8.661098399E0
1.654451033E1,7.431011488E-1,-8.017034058E-1,-8.816030642E0,8.883542308E0
1.655453533E1,6.687887388E-1,-1.113816521E0,-8.992713034E0,9.086074693E0
1.656456033E1,7.769609128E-1,-1.394427032E0,-8.844527047E0,8.987421972E0
1.657458633E1,9.662332369E-1,-1.693563860E0,-8.556480925E0,8.775826516E0
1.658461133E1,9.950396179E-1,-1.512187909E0,-7.971357071E0,8.174310348E0
1.659463633E1,8.522803594E-1,-1.177796609E0,-7.221379158E0,7.366267957E0
1.660466233E1,1.980576926E-1,-1.002437004E0,-5.633413966E0,5.725334899E0
1.661468733E1,-4.955187821E-1,-7.992338343E-1,-2.838951838E0,2.990645603E0
1.662471233E1,-1.016005394E0,-5.213966583E-1,4.559448266E-1,1.229636988E0
1.663473833E1,-1.018483225E0,3.855921511E-1,3.506357126E0,3.671584083E0
1.664476333E1,-8.847541872E-1,2.222787163E0,5.462184688E0,5.963139635E0
1.665478833E1,1.784304900E-1,2.763069305E0,5.584464585E0,6.233188119E0
1.666481433E1,2.066860925E0,2.918257624E-2,9.296437295E0,9.523471640E0
1.667483933E1,2.194844050E0,-3.435087753E0,1.808687175E1,1.854055280E1
1.668486433E1,2.261144021E0,-3.293416150E0,1.807367809E1,1.850992172E1
1.669489033E1,2.301143361E0,-3.208534459E0,1.806695379E1,1.849337107E1
1.670491533E1,2.259334161E0,-3.154573137E0,1.807117432E1,1.848305342E1
1.671494033E1,2.118548119E0,-3.123282347E0,1.808916386E1,1.847866304E1
1.672496533E1,1.921189680E0,-3.108502925E0,1.811823388E1,1.848307764E1
1.673499133E1,1.759769398E0,-3.107612686E0,1.814517083E1,1.849327633E1
1.674501633E1,1.708014377E0,-3.117758775E0,1.815447960E1,1.849926653E1
1.675504133E1,1.768107528E0,-3.144178834E0,1.814406220E1,1.849916371E1
1.676506733E1,1.877683910E0,-3.198430178E0,1.812634396E1,1.850189174E1
1.677509233E1,1.980151979E0,-3.293860246E0,1.811230012E1,1.851555921E1
1.678511733E1,2.040530474E0,-3.427407728E0,1.810781648E1,1.854194989E1
1.679514333E1,2.055932917E0,-3.579903696E0,1.811298542E1,1.857748130E1
1.680516833E1,2.051955788E0,-3.722999389E0,1.812269647E1,1.861460111E1
1.681519333E1,3.068565565E0,2.432799707E0,7.704614110E0,8.642666696E0
1.682521933E1,2.912570037E0,1.688306336E0,4.955345111E0,5.990733484E0
1.683524433E1,3.154223766E0,1.468650710E0,3.332415324E0,4.817785214E0
1.684526933E1,3.253476158E0,1.161909651E0,2.038952165E0,4.011541734E0
1.685529533E1,2.572695950E0,5.351357147E-1,3.360061544E-1,2.649157379E0
1.686532033E1,1.596495549E0,-6.254280534E-1,-2.108759733E0,2.717871576E0
1.687534533E1,6.611538832E-1,-1.636366397E0,-5.003769997E0,5.305896119E0
1.688537133E1,1.617264567E-1,-2.144445291E0,-7.340861748E0,7.649382475E0
1.689539633E1,1.544782481E-1,-2.609332556E0,-8.395412938E0,8.792919783E0
1.690542133E1,1.718566847E-1,-2.915503585E0,-8.745118534E0,9.219912909E0
1.691544633E1,-1.904255413E-2,-2.873919357E0,-9.271833966E0,9.707042813E0
1.692547233E1,-2.438924081E-1,-2.599211611E0,-1.024871074E1,1.057598489E1
1.693549733E1,-4.666227926E-1,-2.140682315E0,-1.158712320E1,1.179244172E1
1.694552233E1,-7.084264290E-1,-1.616461890E0,-1.304515449E1,1.316399912E1
1.695554833E1,-9.439421160E-1,-1.211204822E0,-1.410198259E1,1.418534303E1
1.696557333E1,-1.010041527E0,-1.011700089E0,-1.427350949E1,1.434492224E1
1.697559833E1,-9.058013861E-1,-9.528575119E-1,-1.366912491E1,1.373220264E1
1.698562433E1,-9.105184811E-1,-1.001039373E0,-1.246661227E1,1.253983832E1
1.699564933E1,-9.733735643E-1,-1.233567790E0,-1.098373850E1,1.109556925E1
1.700567433E1,-1.020117449E0,-1.398497863E0,-9.645856377E0,9.799948017E0
1.701569958E1,-9.116798843E-1,-1.444069016E0,-8.377811065E0,8.550100220E0
1.702572458E1,-6.047732026E-1,-1.375127420E0,-7.237481221E0,7.391742722E0
1.703574958E1,-3.811244398E-1,-1.088497493E0,-6.329183512E0,6.433400855E0
1.704577558E1,-1.138869867E-1,-7.613924818E-1,-5.733986076E0,5.785437328E0
1.705580058E1,2.391390603E-2,-4.837038982E-1,-5.477393296E0,5.498761556E0
1.706582558E1,-8.631623201E-3,-1.522319306E-1,-5.652739599E0,5.654795667E0
1.707585158E1,7.826516423E-3,9.753115509E-2,-6.149282228E0,6.150060610E0
1.708587658E1,7.559956480E-3,3.589004157E-1,-6.709460691E0,6.719057182E0
1.709590158E1,5.170380341E-2,4.887089686E-1,-7.109310254E0,7.126275467E0
1.710592758E1,6.189814067E-2,4.827293135E-1,-7.453108408E0,7.468981451E0
1.711595258E1,2.466319017E-2,3.847725908E-1,-7.955507609E0,7.964845230E0
1.712597758E1,6.032224297E-2,2.308490241E-1,-8.578567028E0,8.581884542E0
1.713600258E1,2.127894966E-1,2.065424410E-1,-9.251647623E0,9.256399024E0
1.714602858E1,3.957550870E-1,1.293424568E-1,-9.915165682E0,9.923903570E0
1.715605358E1,5.148191254E-1,1.420588352E-2,-1.028239772E1,1.029528744E1
1.716607858E1,6.532852120E-1,-2.072297081E-1,-1.013806154E1,1.016120158E1
1.717610458E1,8.891781905E-1,-3.660873015E-1,-9.524114424E0,9.572534321E0
1.718612958E1,5.906692068E-1,-8.689107178E-1,-8.363328096E0,8.429065950E0
1.719615458E1,1.124026162E-1,-1.812242896E0,-7.222512934E0,7.447251287E0
1.720618058E1,-2.333839748E-1,-2.405156703E0,-6.551069559E0,6.982532435E0
1.721620558E1,-5.280284606E-1,-2.546357167E0,-6.464627246E0,6.968081107E0
1.722623058E1,-1.061672441E0,-2.401189806E0,-5.966909326E0,6.518962169E0
1.723625658E1,-6.911614285E-1,-2.005330821E0,-4.942054390E0,5.378006826E0
1.724628158E1,7.270893892E-2,-1.308080614E0,-3.082681913E0,3.349520750E0
1.725630658E1,-1.381120012E-1,-9.433485505E-1,-3.361880028E-1,1.010942029E0
1.726633258E1,-9.884075598E-1,-1.043779011E0,1.752682427E0,2.266786231E0
1.727635758E1,-2.438934021E0,-3.624099876E-1,2.533816059E0,3.535528812E0
1.728638258E1,-3.027097696E0,1.013248944E0,3.185735580E0,4.509867523E0
1.729640858E1,-1.350817913E0,2.210622616E0,6.665173295E0,7.150950736E0
1.730643358E1,1.366683163E0,2.041507106E0,1.357381763E1,1.379435027E1
1.731645858E1,1.307428357E0,2.277577766E0,1.355817750E1,1.381017402E1
1.732648458E1,1.358647042E0,2.473319888E0,1.354433363E1,1.383518003E1
1.733650958E1,1.457388973E0,2.609855298E0,1.353447757E1,1.386064249E1
1.734653458E1,1.527271094E0,2.678546925E0,1.352994480E1,1.387683599E1
1.735655958E1,1.529098641E0,2.671040270E0,1.353008514E1,1.387572710E1
1.736658558E1,1.466518669E0,2.590667659E0,1.353477460E1,1.385829569E1
1.737661058E1,1.377990509E0,2.460788721E0,1.354399215E1,1.383452429E1
1.738663558E1,1.306593520E0,2.307221542E0,1.355627832E1,1.381315098E1
1.739666158E1,1.285581990E0,2.150055109E0,1.356879721E1,1.379810552E1
1.740668658E1,1.318371567E0,2.003810983E0,1.357981804E1,1.379002611E1
1.741671158E1,1.385641006E0,1.874214465E0,1.358965072E1,1.378808499E1
1.742673758E1,2.967867156E0,3.834295292E0,9.050725014E0,1.026770077E1
1.743676258E1,2.212210719E0,3.682998295E0,5.146863644E0,6.704368581E0
1.744678758E1,1.125705446E0,3.431717418E0,1.622831554E0,3.959479693E0
1.745681358E1,6.754959337E-2,2.835158457E0,-1.382329727E0,3.154920268E0
1.746683858E1,-4.417070758E-2,1.661563511E0,-2.784932336E0,3.243237961E0
1.747686358E1,8.625012924E-1,4.613900462E-1,-2.909538841E0,3.069561128E0
1.748688958E1,1.905672485E0,-8.623244141E-1,-2.750885754E0,3.455801419E0
1.749691458E1,2.245551835E0,-2.050193875E0,-3.393735659E0,4.556669803E0
1.750693958E1,1.971396943E0,-2.671558625E0,-5.489528022E0,6.415492912E0
1.751696558E1,1.356500968E0,-2.791752236E0,-8.272737184E0,8.835844948E0
1.752699058E1,2.604403938E-1,-2.845803898E0,-1.118034878E1,1.153978457E1
1.753701558E1,-8.343786702E-1,-2.881039512E0,-1.374299746E1,1.406650474E1
1.754704058E1,-1.525269884E0,-2.893963612E0,-1.527919082E1,1.562546466E1
1.755706658E1,-1.784683799E0,-3.084427599E0,-1.541564028E1,1.582216025E1
1.756709158E1,-1.817531410E0,-3.137384954E0,-1.478007249E1,1.521831619E1
1.757711658E1,-1.765605358E0,-3.394785527E0,-1.375306988E1,1.427546364E1
1.758714258E1,-1.685420005E0,-3.759538055E0,-1.249918476E1,1.316071376E1
1.759716758E1,-1.624390130E0,-3.995204819E0,-1.111121247E1,1.191886519E1
1.760719258E1,-1.448614641E0,-4.131253740E0,-9.659064653E0,1.060487019E1
1.761721858E1,-1.279711970E0,-4.103056712E0,-8.345629159E0,9.387345907E0
1.762724358E1,-1.059566055E0,-4.037007149E0,-7.232552603E0,8.350444545E0
1.763726858E1,-7.807177489E-1,-3.791766738E0,-6.312587360E0,7.405118121E0
1.764729458E1,-6.048452695E-1,-3.356259977E0,-5.743704148E0,6.679854502E0
1.765731958E1,-4.379606916E-1,-2.808095496E0,-5.894996175E0,6.544325006E0
1.766734458E1,-2.318481306E-1,-2.099517332E0,-6.462743858E0,6.799175300E0
1.767737058E1,-3.918420207E-2,-1.431919525E0,-7.011000432E0,7.155840691E0
1.768739558E1,1.725762942E-1,-8.235697997E-1,-7.544278194E0,7.591059430E0
1.769742058E1,4.308914444E-1,-3.018416043E-1,-8.061532831E0,8.078681042E0
1.770744558E1,6.269843629E-1,3.314603828E-1,-8.660580075E0,8.689569760E0
1.771747158E1,7.803204305E-1,6.840666363E-1,-9.290149199E0,9.347925935E0
1.772749658E1,8.081283264E-1,9.363349615E-1,-9.755664164E0,9.833757056E0
1.773752158E1,7.197948781E-1,1.059259807E0,-9.900135999E0,9.982626348E0
1.774754758E1,6.969238595E-1,1.011767552E0,-9.793334851E0,9.870095437E0
1.775757258E1,6.289713199E-1,8.022865194E-1,-9.626303288E0,9.680133448E0
1.776759758E1,5.361850706E-1,5.947442776E-1,-9.484583738E0,9.518326737E0
1.777762358E1,2.721479631E-1,2.485282999E-1,-9.164653333E0,9.172060922E0
1.778764858E1,-5.496156134E-2,-1.071364859E-1,-9.050618595E0,9.051419554E0
1.779767358E1,-2.086962446E-1,-2.118136328E-1,-8.909877868E0,8.914838348E0
1.780769958E1,-1.777578409E-1,-2.001804511E-1,-8.042089670E0,8.046544371E0
1.781772458E1,1.175465397E-1,-3.490514387E-1,-6.888387828E0,6.898227379E0
1.782774958E1,1.391629651E-1,-4.946728362E-1,-5.535908722E0,5.559707989E0
1.783777558E1,-3.714855606E-1,-8.461735274E-1,-3.929020770E0,4.036237775E0
1.784780058E1,-1.362744771E0,-1.214274318E0,-2.153614894E0,2.823046677E0
1.785782558E1,-2.024311321E0,-1.265417428E0,-5.171552342E-1,2.442655753E0
1.786785058E1,-2.579188990E0,-7.512928055E-1,7.252640712E-1,2.782564411E0
1.787787658E1,-3.369598938E0,8.916356291E-1,1.766540912E0,3.907669112E0
1.788790158E1,-3.954292144E0,3.242014739E0,1.413053922E0,5.305073733E0
1.789792658E1,-3.381668175E0,4.921937630E0,1.126856105E0,6.077084363E0
1.790795258E1,2.801620290E-1,4.821133678E0,4.462465762E0,6.575364734E0
1.791797758E1,5.747428240E0,1.942962226E0,1.343707231E1,1.474323390E1
1.792800258E1,8.047324097E0,-3.264017226E0,2.691825835E1,2.828437495E1
1.793802858E1,8.174672361E0,-3.167983434E0,2.689899762E1,2.829165001E1
1.794805358E1,8.344152737E0,-3.120225130E0,2.688250380E1,2.832012889E1
1.795807858E1,8.442292989E0,-3.090007889E0,2.687425220E1,2.833806435E1
1.796810458E1,8.428303526E0,-3.090355799E0,2.687510824E1,2.833474973E1
1.797812958E1,8.321001272E0,-3.144468856E0,2.688578525E1,2.831911360E1
1.798815458E1,8.186260373E0,-3.246910905E0,2.690401687E1,2.830871620E1
1.799818058E1,8.081298174E0,-3.365589502E0,2.692380853E1,2.831123520E1
1.800820633E1,8.033924618E0,-3.472401175E0,2.693897854E1,2.832507863E1
1.801823133E1,8.042146388E0,-3.551945820E0,2.694673429E1,2.834464546E1
1.802825733E1,8.080998797E0,-3.601542195E0,2.694859370E1,2.836371538E1
1.803828233E1,8.126264432E0,-3.627171126E0,2.694736813E1,2.837874545E1
1.804830733E1,2.320742205E0,4.127574672E0,8.137964126E0,9.415369200E0
1.805833233E1,1.572861834E0,3.424902488E0,6.045059702E0,7.123664661E0
1.806835833E1,8.023937427E-1,2.257267609E0,4.109830711E0,4.757079067E0
1.807838333E1,9.229571899E-1,1.304993284E0,3.153389368E0,3.535353158E0
1.808840833E1,2.142145581E0,7.968613996E-1,3.427915558E0,4.119997676E0
1.809843433E1,3.463383891E0,5.190907357E-1,3.451547080E0,4.917078443E0
1.810845933E1,3.857810454E0,9.002665579E-3,2.697456236E0,4.707340299E0
1.811848433E1,3.432135786E0,-5.842243326E-1,1.291913062E0,3.713477277E0
1.812851033E1,2.743360972E0,-9.333041304E-1,-8.311887217E-1,3.014624473E0
1.813853533E1,1.873939938E0,-1.086274966E0,-3.800257480E0,4.374197196E0
1.814856033E1,9.784781836E-1,-9.891531529E-1,-7.439307809E0,7.568298633E0
1.815858633E1,-2.408911419E-1,-9.726770148E-1,-1.120551052E1,1.125022645E1
1.816861133E1,-1.580422430E0,-1.084681161E0,-1.462136971E1,1.474648163E1
1.817863633E1,-2.642530416E0,-1.224916689E0,-1.706373180E1,1.731052659E1
1.818866133E1,-3.578698585E0,-1.803737829E0,-1.792840285E1,1.837085144E1
1.819868733E1,-3.028886359E0,-2.149188260E0,-1.846299857E1,1.883282982E1
1.820871233E1,-2.617671855E0,-1.936739181E0,-1.821890071E1,1.850760675E1
1.821873733E1,-2.542477247E0,-2.315315404E0,-1.715270537E1,1.749400405E1
1.822876333E1,-2.646012433E0,-3.146427673E0,-1.518502024E1,1.573169504E1
1.823878833E1,-2.092960557E0,-3.464703608E0,-1.308356368E1,1.369541141E1
1.824881333E1,-1.666785659E0,-3.480702175E0,-1.090085187E1,1.156382435E1
1.825883933E1,-1.295649579E0,-3.292337923E0,-9.016452144E0,9.685794036E0
1.826886433E1,-8.838383670E-1,-2.793928862E0,-7.534183561E0,8.084004619E0
1.827888933E1,-6.233371621E-1,-2.250787432E0,-6.505009287E0,6.911565605E0
1.828891533E1,-4.958682264E-1,-1.711259874E0,-5.903034343E0,6.166044932E0
1.829894033E1,-4.560332657E-1,-1.231408998E0,-5.768875242E0,5.916439471E0
1.830896533E1,-6.023746748E-1,-9.328614230E-1,-6.050122222E0,6.151183998E0
1.831899133E1,-8.308524337E-1,-7.085710014E-1,-6.389008715E0,6.481652643E0
1.832901633E1,-8.644521428E-1,-3.734050188E-1,-6.550245101E0,6.617584129E0
1.833904133E1,-7.108676416E-1,-4.714975432E-2,-6.672619724E0,6.710544678E0
1.834906633E1,-6.088384793E-1,2.282812925E-1,-6.843525066E0,6.874345931E0
1.835909233E1,-4.603589628E-1,4.524063110E-1,-6.923978076E0,6.953996998E0
1.836911733E1,-2.164311060E-1,7.014594716E-1,-7.131743097E0,7.169424483E0
1.837914233E1,6.671526879E-3,7.969043767E-1,-7.591724256E0,7.633438169E0
1.838916833E1,1.794169883E-1,9.275696929E-1,-8.300148346E0,8.353743985E0
1.839919333E1,-1.271645882E-1,7.066803773E-1,-8.502438034E0,8.532703002E0
1.840921833E1,-2.563250504E-1,4.019168463E-1,-8.661957094E0,8.675064287E0
1.841924433E1,1.061864595E-1,3.457090972E-1,-9.310068324E0,9.317089811E0
1.842926933E1,3.093700406E-1,6.945447005E-2,-9.817641141E0,9.822759863E0
1.843929433E1,3.446217343E-2,-4.702794950E-1,-9.507282629E0,9.518969137E0
1.844932033E1,-5.702122112E-1,-1.082164885E0,-8.595300590E0,8.681901579E0
1.845934533E1,-1.107623589E0,-1.501817287E0,-7.228229756E0,7.465225421E0
1.846937033E1,-1.290893162E0,-1.474341367E0,-5.939106401E0,6.254044488E0
1.847939533E1,-9.867603991E-1,-1.180992989E0,-5.044016967E0,5.273570678E0
1.848942133E1,-3.884422302E-1,-2.577736250E-1,-4.687463112E0,4.710588609E0
1.849944633E1,1.317134296E-1,2.649753481E-1,-2.732675770E0,2.748650073E0
1.850947133E1,6.201896060E-1,5.595666973E-1,7.693140703E-1,1.135603001E0
1.851949733E1,-9.049297124E-4,7.431441258E-1,5.056762143E0,5.111076930E0
1.852952233E1,-1.396972032E0,1.182942597E0,8.117148623E0,8.320996684E0
1.853954733E1,-1.219306870E0,1.572490536E0,8.233201820E0,8.470244857E0
1.854957333E1,7.990812220E-1,1.202099464E0,9.534940544E0,9.643581549E0
1.855959833E1,3.576610545E0,5.081553461E-1,1.433186353E1,1.478014469E1
1.856962333E1,3.625197106E0,6.516525963E-1,1.431437802E1,1.478066721E1
1.857964933E1,3.660393836E0,7.786979744E-1,1.430157379E1,1.478309394E1
1.858967433E1,3.667273377E0,8.790616304E-1,1.429453608E1,1.478361948E1
1.859969933E1,3.639038050E0,9.303045087E-1,1.429415952E1,1.477941341E1
1.860972433E1,3.586606360E0,9.128060581E-1,1.429999036E1,1.477114364E1
1.861975033E1,3.536214178E0,8.280739099E-1,1.431002067E1,1.476371257E1
1.862977533E1,3.513659129E0,7.013204540E-1,1.432130229E1,1.476270132E1
1.863980033E1,3.527112695E0,5.658207330E-1,1.433135249E1,1.476984567E1
1.864982633E1,3.568124188E0,4.521343423E-1,1.433830716E1,1.478252306E1
1.865985133E1,3.627295672E0,3.751388644E-1,1.434093724E1,1.479731341E1
1.866987633E1,3.698077094E0,3.338395417E-1,1.433936668E1,1.481231447E1
1.867990233E1,2.271967801E0,5.424077799E0,8.080916936E0,9.994182117E0
1.868992733E1,1.665327948E0,3.825252573E0,5.521072581E0,6.920124050E0
1.869995233E1,9.696059109E-1,2.114229219E0,3.120265476E0,3.891806451E0
1.870997833E1,8.981209221E-1,9.102104060E-1,2.067547388E0,2.431019617E0
1.872000333E1,1.940123987E0,-1.526239499E-1,3.097453149E0,3.658085724E0
1.873002833E1,2.931720838E0,-7.177834359E-1,3.651535889E0,4.737500869E0
1.874005333E1,3.021837249E0,-9.595303544E-1,2.187507695E0,3.851933122E0
1.875007933E1,2.909901953E0,-9.173660823E-1,5.150747949E-1,3.094251436E0
1.876010433E1,3.221582813E0,-2.112505460E-1,-5.419181925E-1,3.273667353E0
1.877012933E1,3.406396343E0,6.205201198E-1,-1.414699329E0,3.740314887E0
1.878015533E1,2.620305149E0,4.881098848E-1,-2.481239065E0,3.641537811E0
1.879018033E1,1.141683913E0,-2.565815604E-1,-4.139031706E0,4.301262573E0
1.880020533E1,-6.961311963E-1,-7.351327094E-1,-6.554755644E0,6.632483720E0
1.881023133E1,-2.035854456E0,-1.085227291E0,-9.268773533E0,9.551574972E0
1.882025633E1,-2.905371822E0,-1.279461563E0,-1.159870537E1,1.202531386E1
1.883028133E1,-3.432605902E0,-1.542077267E0,-1.329199119E1,1.381440608E1
1.884030733E1,-3.619507473E0,-1.900976586E0,-1.418421549E1,1.476165693E1
1.885033233E1,-3.445941939E0,-2.263080911E0,-1.424763205E1,1.483209595E1
1.886035733E1,-3.147198336E0,-2.641258646E0,-1.352460980E1,1.413492748E1
1.887038233E1,-2.834453867E0,-2.755652404E0,-1.248211440E1,1.309316344E1
1.888040833E1,-2.509158935E0,-2.561386265E0,-1.123803156E1,1.179618293E1
1.889043333E1,-2.017308842E0,-2.012417792E0,-9.832198370E0,1.023677122E1
1.890045833E1,-1.349091961E0,-1.144884167E0,-8.707691091E0,8.885645335E0
1.891048433E1,-6.247168127E-1,-3.010431304E-1,-7.913074949E0,7.943403126E0
1.892050933E1,-1.115509510E-1,2.661534707E-1,-7.373353556E0,7.378998844E0
1.893053433E1,-1.587424032E-2,5.286206008E-1,-7.008826438E0,7.028750939E0
1.894056033E1,-1.439087846E-1,4.470735041E-1,-6.938889061E0,6.954765694E0
1.895058533E1,-1.482572858E-1,3.649738455E-1,-6.892065727E0,6.903314864E0
1.896061033E1,-2.322353259E-2,4.274609561E-1,-6.593330895E0,6.607213822E0
1.897063533E1,1.015629565E-1,4.751323551E-1,-6.394065387E0,6.412498574E0
1.898066133E1,1.888696703E-1,5.232600928E-1,-6.682369371E0,6.705485313E0
1.899068633E1,2.319940917E-1,5.943859164E-1,-7.256710374E0,7.284707361E0
1.900071133E1,3.418030840E-1,6.836847400E-1,-7.759991920E0,7.797546330E0
1.901073683E1,5.929479399E-1,7.596302041E-1,-8.178337396E0,8.234915171E0
1.902076183E1,8.453069700E-1,7.385074300E-1,-8.726217994E0,8.798114433E0
1.903078683E1,8.300705878E-1,7.535483690E-1,-9.203551351E0,9.271580760E0
1.904081283E1,7.248975970E-1,5.298814798E-1,-9.705910791E0,9.747356318E0
1.905083783E1,6.215187512E-1,2.340017697E-1,-1.004989255E1,1.007181129E1
1.906086283E1,4.145451145E-1,-5.695999347E-2,-1.012097130E1,1.012961757E1
1.907088783E1,2.231560983E-1,-3.869074823E-1,-1.002294390E1,1.003289093E1
1.908091383E1,6.328518245E-2,-6.775839745E-1,-9.968698111E0,9.991900073E0
1.909093883E1,2.828987452E-1,-8.337120145E-1,-1.019328499E1,1.023123483E1
1.910096383E1,3.892648969E-1,-1.010153136E0,-1.037031996E1,1.042667122E1
1.911098983E1,5.991864804E-2,-1.231022790E0,-9.928071656E0,1.000427979E1
1.912101483E1,-5.244971078E-1,-1.154622412E0,-8.718069899E0,8.809823659E0
1.913103983E1,-9.940101425E-1,-1.264158376E0,-6.842105947E0,7.028553646E0
1.914106583E1,-9.629841585E-1,-1.463012094E0,-4.753836612E0,5.066231874E0
1.915109083E1,-6.888936590E-1,-1.004533961E0,-2.996717902E0,3.234807744E0
1.916111583E1,4.470885607E-1,-4.419730510E-1,-1.412204322E0,1.545816744E0
1.917114083E1,2.285985039E0,1.333494075E-1,1.537264570E0,2.758023209E0
1.918116683E1,3.718864238E0,1.112054390E0,5.701194305E0,6.897117709E0
1.919119183E1,3.720493273E0,1.462576184E0,9.426169469E0,1.023884125E1
1.920121683E1,3.184222906E0,3.630065498E-1,1.275013907E1,1.314675229E1
1.921124283E1,3.174145814E0,6.026399191E-1,1.275073900E1,1.315369612E1
1.922126783E1,3.203966614E0,7.993338217E-1,1.275186985E1,1.317249108E1
1.923129283E1,3.255708625E0,9.285666431E-1,1.275182073E1,1.319358961E1
1.924131883E1,3.296688251E0,9.987041411E-1,1.275148978E1,1.320855991E1
1.925134383E1,3.296580078E0,1.025492063E0,1.275290715E1,1.321195348E1
1.926136883E1,3.246035869E0,1.018136193E0,1.275706452E1,1.320288019E1
1.927139383E1,3.160013679E0,9.763198301E-1,1.276328362E1,1.318485099E1
1.928141983E1,3.066740064E0,9.018029869E-1,1.276984185E1,1.316385218E1
1.929144483E1,2.995022210E0,8.045354316E-1,1.277454769E1,1.314558877E1
1.930146983E1,2.962240965E0,6.979385707E-1,1.277573117E1,1.313321349E1
1.931149583E1,2.970781408E0,5.920693592E-1,1.277310811E1,1.312739041E1
1.932152083E1,3.010670528E0,4.874744021E-1,1.276792630E1,1.312713641E1
1.933154583E1,3.063114790E0,3.798466405E-1,1.276266030E1,1.313059228E1
1.934157083E1,3.101226942E0,2.649688248E-1,1.276056934E1,1.313468488E1
1.935159683E1,1.788734166E0,2.878103332E0,8.954192746E0,9.573955110E0
1.936162183E1,1.293858139E0,2.620782866E0,5.832480669E0,6.523833418E0
1.937164683E1,1.981819605E0,2.240422804E0,3.022621068E0,4.252451223E0
1.938167283E1,3.159032224E0,1.737412131E0,1.501310041E0,3.905383123E0
1.939169783E1,4.181482492E0,8.214821244E-1,9.539363962E-1,4.366877988E0
1.940172283E1,4.412099309E0,-5.414051724E-1,3.858910900E-1,4.461911228E0
1.941174883E1,3.364000813E0,-1.832008970E0,-1.109431987E0,3.987931503E0
1.942177383E1,1.674175370E0,-2.771171791E0,-4.230393866E0,5.327146378E0
1.943179883E1,-4.854066074E-2,-3.456604922E0,-8.042983124E0,8.754430382E0
1.944182383E1,-1.638039724E0,-3.489049952E0,-1.210059762E1,1.269964985E1
1.945184983E1,-2.496705827E0,-3.027695282E0,-1.627983419E1,1.674614821E1
1.946187483E1,-2.986108714E0,-2.881262583E0,-1.906641603E1,1.951273275E1
1.947189983E1,-3.503778211E0,-3.086395772E0,-2.006105782E1,2.059728966E1
1.948192583E1,-3.805482260E0,-3.661742204E0,-1.989197739E1,2.058107907E1
1.949195083E1,-3.772691951E0,-4.361179708E0,-1.897734890E1,1.983413382E1
1.950197583E1,-3.508903003E0,-4.908002545E0,-1.757736409E1,1.858398821E1
1.951200083E1,-3.081759807E0,-5.237646929E0,-1.580865503E1,1.693646252E1
1.952202683E1,-2.813758525E0,-5.074874479E0,-1.390722587E1,1.506925743E1
1.953205183E1,-2.377876226E0,-4.525556927E0,-1.209139995E1,1.312771547E1
1.954207683E1,-1.552315449E0,-3.772855089E0,-1.041321163E1,1.118387657E1
1.955210283E1,-6.755940208E-1,-2.718407979E0,-8.642133864E0,9.084748039E0
1.956212783E1,-4.088899434E-2,-1.646237959E0,-6.910795528E0,7.104285056E0
1.957215283E1,3.020113197E-1,-5.532268172E-1,-5.723703747E0,5.758303164E0
1.958217883E1,4.363382354E-1,3.450879036E-1,-4.847419544E0,4.879236923E0
1.959220383E1,3.678063098E-1,1.087827987E0,-4.321802804E0,4.471759238E0
1.960222883E1,3.027559626E-1,1.667696948E0,-3.952859868E0,4.300927275E0
1.961225383E1,1.987993388E-1,2.004579454E0,-3.732674192E0,4.241546485E0
1.962227983E1,-6.198414043E-2,2.151504049E0,-3.946291106E0,4.495111256E0
1.963230483E1,-4.428795156E-1,2.113569945E0,-4.623198704E0,5.102674440E0
1.964232983E1,-6.907967815E-1,2.007577175E0,-5.779964486E0,6.157560862E0
1.965235583E1,-7.869922498E-1,1.875809293E0,-7.100523058E0,7.386165785E0
1.966238083E1,-8.034461685E-1,1.456996771E0,-8.223838674E0,8.390464103E0
1.967240583E1,-6.660795777E-1,1.106321853E0,-9.018933703E0,9.110915167E0
1.968243083E1,-3.207885930E-1,8.266169299E-1,-9.648649592E0,9.689305436E0
1.969245683E1,-2.851267536E-1,4.259886637E-1,-9.992830739E0,1.000596971E1
1.970248183E1,-2.870095570E-1,-1.211989664E-1,-1.007100567E1,1.007582349E1
1.971250683E1,1.589583848E-2,-5.976323636E-1,-9.858796184E0,9.876906364E0
1.972253283E1,3.693223832E-2,-9.654684942E-1,-9.170524523E0,9.221280466E0
1.973255783E1,-1.432829132E-2,-1.281035341E0,-8.279607663E0,8.378135824E0
1.974258283E1,-1.089810814E-1,-1.592641795E0,-7.144840275E0,7.321005895E0
1.975260783E1,-4.239626766E-1,-1.584768812E0,-6.233303209E0,6.445564788E0
1.976263383E1,-9.362218910E-1,-1.185215045E0,-6.057497900E0,6.242958188E0
1.977265883E1,-1.212008375E0,-7.532440214E-1,-5.835120687E0,6.007077017E0
1.978268383E1,-5.743699836E-1,-1.417613581E-2,-4.982539342E0,5.015555815E0
1.979270983E1,9.077656120E-1,1.434094251E0,-2.991277068E0,3.439244572E0
1.980273483E1,1.965807444E0,2.320273989E0,5.701970816E-2,3.041598517E0
1.981275983E1,2.080221520E0,2.469220698E0,4.118351859E0,5.233086514E0
1.982278583E1,1.815428313E0,2.432028021E0,9.260607312E0,9.745223858E0
1.983281083E1,1.917634134E0,2.254838091E0,1.420731199E1,1.451238538E1
1.984283583E1,1.859649051E0,2.369649340E0,1.420233952E1,1.451826369E1
1.985286083E1,1.810431575E0,2.419369968E0,1.420275350E1,1.452064808E1
1.986288683E1,1.783662875E0,2.381608650E0,1.420786748E1,1.451609490E1
1.987291183E1,1.768488328E0,2.280630159E0,1.421738090E1,1.450733416E1
1.988293683E1,1.758006609E0,2.157067967E0,1.422975010E1,1.449928679E1
1.989296283E1,1.756137546E0,2.027597164E0,1.424358578E1,1.449396099E1
1.990298783E1,1.763438234E0,1.892088234E0,1.425909260E1,1.449177125E1
1.991301283E1,1.770824144E0,1.761544320E0,1.427582148E1,1.449268558E1
1.992303783E1,1.773646741E0,1.650549695E0,1.429177268E1,1.449568569E1
1.993306383E1,1.780348381E0,1.561569107E0,1.430510200E1,1.449979591E1
1.994308883E1,1.803043326E0,1.489562400E0,1.431497794E1,1.450477007E1
1.995311383E1,1.846119179E0,1.426885072E0,1.432209517E1,1.451091201E1
1.996313983E1,1.902320130E0,1.364735602E0,1.432869668E1,1.451870772E1
1.997316483E1,1.955429952E0,1.296544934E0,1.433739851E1,1.452810143E1
1.998318983E1,-1.372577449E0,-1.023411405E0,7.797270843E0,7.983030274E0
1.999321483E1,-1.132450136E0,-1.244530443E0,4.037536907E0,4.374128897E0
2.000324083E1,-3.854414392E-1,-9.478174312E-1,-4.096699619E-1,1.102158094E0
2.001326629E1,8.027824364E-1,-8.798781940E-1,-3.839404004E0,4.019909002E0
2.002329129E1,1.711452540E0,-1.201939324E0,-4.430798412E0,4.899561460E0
2.003331729E1,1.932841719E0,-1.880714961E0,-3.432917266E0,4.365533969E0
2.004334229E1,1.693068309E0,-2.574212133E0,-2.537523778E0,3.991500385E0
2.005336729E1,9.112023861E-1,-2.998545157E0,-2.584804364E0,4.062360945E0
2.006339229E1,-2.300479556E-1,-3.087605268E0,-3.827193264E0,4.922767172E0
2.007341829E1,-1.260913902E0,-2.945412678E0,-5.356920188E0,6.241951106E0
2.008344329E1,-1.878599877E0,-2.487837355E0,-7.087845125E0,7.743127322E0
2.009346829E1,-1.974342917E0,-1.637588611E0,-9.442090852E0,9.784314287E0
2.010349429E1,-1.782167011E0,-8.427005737E-1,-1.195371088E1,1.211517508E1
2.011351929E1,-1.395644715E0,-3.510359837E-1,-1.368325997E1,1.375873009E1
2.012354429E1,-1.069324327E0,-8.440178052E-2,-1.443061014E1,1.447042111E1
2.013356929E1,-6.436059505E-1,-2.125360563E-1,-1.410155808E1,1.411783767E1
2.014359529E1,-2.062801203E-1,-6.090926139E-1,-1.279208466E1,1.280823857E1
2.015362029E1,1.351138048E-2,-1.207319347E0,-1.117900392E1,1.124401758E1
2.016364529E1,-1.589708832E-1,-1.779401863E0,-9.655631168E0,9.819508948E0
2.017367129E1,-4.146702815E-1,-2.248285701E0,-8.503076550E0,8.805058254E0
2.018369629E1,-4.170997996E-1,-2.481884013E0,-7.756247948E0,8.154330305E0
2.019372129E1,-2.922528284E-1,-2.310197044E0,-7.524252065E0,7.876343774E0
2.020374629E1,-2.453266570E-1,-1.978906669E0,-7.706769978E0,7.960562811E0
2.021377229E1,-1.482786646E-1,-1.749761304E0,-8.087714909E0,8.276157540E0
2.022379729E1,-1.764591012E-1,-1.389004178E0,-8.607307262E0,8.720447737E0
2.023382229E1,-1.894913024E-1,-1.084152281E0,-8.992843426E0,9.059940729E0
2.024384829E1,-2.738697671E-1,-9.005581878E-1,-9.067711760E0,9.116436051E0
2.025387329E1,-5.225501677E-1,-8.880952862E-1,-9.027699848E0,9.086315891E0
2.026389829E1,-8.788292035E-1,-1.076702051E0,-8.892601685E0,9.000555139E0
2.027392329E1,-1.166206989E0,-1.225375695E0,-8.656375927E0,8.820114995E0
2.028394929E1,-1.281087966E0,-1.311980414E0,-8.475233864E0,8.671336000E0
2.029397429E1,-1.424345188E0,-1.301049044E0,-8.525662006E0,8.741189877E0
2.030399929E1,-1.330281322E0,-1.195268820E0,-8.691275033E0,8.873363379E0
2.031402429E1,-1.139446549E0,-1.105874248E0,-8.904514217E0,9.044980361E0
2.032405029E1,-9.354983711E-1,-8.719487849E-1,-9.439870664E0,9.526101514E0
2.033407529E1,-6.378446889E-1,-8.506714980E-1,-9.794831738E0,9.852371117E0
2.034410029E1,-3.298379997E-1,-1.044245765E0,-9.325559353E0,9.389637882E0
2.035412629E1,-2.449878109E-1,-1.292473079E0,-8.458706709E0,8.560386958E0
2.036415129E1,-3.479064443E-1,-1.764508566E0,-7.606163955E0,7.815897868E0
2.037417629E1,-3.980936078E-1,-2.196056763E0,-6.399499789E0,6.777517346E0
2.038420129E1,-4.495443547E-1,-2.437015257E0,-5.144020143E0,5.709822827E0
2.039422729E1,-5.474760075E-1,-2.263515651E0,-4.226845191E0,4.825914768E0
2.040425229E1,-7.140602213E-1,-1.452037601E0,-3.423681005E0,3.786804301E0
2.041427729E1,-1.024275038E0,-3.330805001E-1,-2.621848229E0,2.834461168E0
2.042430329E1,-1.325055227E0,7.067927170E-1,-1.610689226E0,2.202191427E0
2.043432829E1,-1.505307928E0,1.583035843E0,7.363398671E-3,2.184492770E0
2.044435329E1,-1.677417944E0,2.635088957E0,2.452010588E0,3.971118317E0
2.045437829E1,-1.287052418E0,3.395427843E0,4.837429576E0,6.048649359E0
2.046440429E1,1.510943913E-1,3.972594806E0,7.484439543E0,8.474737417E0
2.047442929E1,2.134414100E0,4.332773642E0,1.150225438E1,1.247519566E1
2.048445429E1,3.801623974E0,3.756892190E0,1.616270043E1,1.702349755E1
2.049448029E1,3.764090990E0,3.832916518E0,1.615454122E1,1.702435996E1
2.050450529E1,3.774488216E0,3.892281545E0,1.614483368E1,1.703092104E1
2.051453029E1,3.846037086E0,3.909416226E0,1.613585469E1,1.704233972E1
2.052455529E1,3.963661430E0,3.875155635E0,1.613118160E1,1.705703558E1
2.053458129E1,4.086235442E0,3.797659270E0,1.613427477E1,1.707144864E1
2.054460629E1,4.172430710E0,3.686349626E0,1.614695271E1,1.707988388E1
2.055463129E1,4.200998159E0,3.547223901E0,1.616943174E1,1.707869157E1
2.056465629E1,4.180668267E0,3.392246081E0,1.619964314E1,1.707084528E1
2.057468229E1,4.138016337E0,3.239141124E0,1.623337222E1,1.706275441E1
2.058470729E1,4.107314070E0,3.110492440E0,1.626353215E1,1.706011929E1
2.059473229E1,4.114809908E0,3.025366336E0,1.628282095E1,1.706501568E1
2.060475829E1,4.170108196E0,2.996893319E0,1.628640295E1,1.707682913E1
2.061478329E1,2.938031153E0,2.982613834E0,7.734958236E0,8.795316438E0
2.062480829E1,2.602869337E0,1.103410670E0,6.324929663E0,6.927999649E0
2.063483329E1,1.668646536E0,-4.932524014E-1,5.901750879E0,6.152913345E0
2.064485929E1,8.664654122E-1,-1.552578428E0,5.506178554E0,5.786126887E0
2.065488429E1,6.083584229E-1,-2.070134781E0,5.064882756E0,5.505324270E0
2.066490929E1,6.612591331E-1,-2.255763705E0,4.335095279E0,4.931407975E0
2.067493529E1,7.354906321E-1,-2.283844081E0,2.710501374E0,3.619904412E0
2.068496029E1,7.782368483E-1,-2.094201628E0,1.981498593E-1,2.242899110E0
2.069498529E1,8.295702124E-1,-1.820263229E0,-2.621525463E0,3.297565877E0
2.070501029E1,9.486695898E-1,-1.782480861E0,-5.082300442E0,5.468728353E0
2.071503629E1,9.659186567E-1,-1.679201491E0,-6.768441555E0,7.040207211E0
2.072506129E1,1.247713228E0,-1.315998767E0,-7.939504949E0,8.143978136E0
2.073508629E1,1.446093614E0,-8.525510855E-1,-8.798620557E0,8.957329613E0
2.074511129E1,1.346573127E0,-2.516052510E-1,-9.889820341E0,9.984243124E0
2.075513729E1,9.766491745E-1,3.068779573E-1,-1.139392418E1,1.143982194E1
2.076516229E1,5.694964024E-1,7.223702842E-1,-1.288537348E1,1.291816530E1
2.077518729E1,1.617502841E-1,6.600525601E-1,-1.381507843E1,1.383178313E1
2.078521329E1,-1.508377717E-1,4.306522568E-1,-1.406130702E1,1.406870884E1
2.079523829E1,-2.239961970E-1,1.285647771E-1,-1.351596294E1,1.351843029E1
2.080526329E1,-4.151357564E-1,-2.917345458E-1,-1.235154491E1,1.236196216E1
2.081528829E1,-7.759680556E-1,-8.139477678E-1,-1.093855004E1,1.099620455E1
2.082531429E1,-1.022643958E0,-1.367863716E0,-9.655905402E0,9.805782016E0
2.083533929E1,-1.368379294E0,-1.893387631E0,-8.682698922E0,8.991475918E0
2.084536429E1,-1.647870794E0,-2.192972941E0,-8.155584710E0,8.604543593E0
2.085538929E1,-1.703004629E0,-2.357337296E0,-7.935474463E0,8.451569017E0
2.086541529E1,-1.528332948E0,-2.391198230E0,-8.006620460E0,8.494680792E0
2.087544029E1,-1.367848221E0,-2.243747531E0,-8.276472970E0,8.683629228E0
2.088546529E1,-1.302277837E0,-2.133724713E0,-8.543145180E0,8.901350363E0
2.089549029E1,-1.070991514E0,-2.050640456E0,-8.813528033E0,9.112103242E0
2.090551629E1,-7.670472510E-1,-1.823228499E0,-9.019642970E0,9.233985215E0
2.091554129E1,-3.231310241E-1,-1.578305592E0,-9.033633603E0,9.176164682E0
2.092556629E1,2.997925937E-2,-1.456541711E0,-8.984916941E0,9.102260431E0
2.093559229E1,1.807853099E-1,-1.322429388E0,-8.875883326E0,8.975678672E0
2.094561729E1,2.498204615E-1,-1.274402113E0,-8.731696250E0,8.827742091E0
2.095564229E1,2.785702707E-1,-1.213184104E0,-8.412227191E0,8.503821693E0
2.096566729E1,1.931510016E-1,-1.105130556E0,-8.185141216E0,8.261667966E0
2.097569329E1,2.427406528E-1,-9.377005787E-1,-8.218732300E0,8.275612728E0
2.098571829E1,4.046011569E-1,-6.842340128E-1,-8.406861202E0,8.444358682E0
2.099574329E1,4.247310738E-1,-4.126922415E-1,-8.389649338E0,8.410524798E0
2.100576929E1,5.615554816E-1,-3.320034429E-1,-7.808803307E0,7.836005355E0
2.101579446E1,5.462819695E-1,-6.099202873E-1,-6.387710048E0,6.439974100E0
2.102581946E1,2.281925610E-1,-1.010327456E0,-4.478129284E0,4.596354566E0
2.103584446E1,-5.795952382E-1,-1.394973162E0,-2.550933782E0,2.964649039E0
2.104587046E1,-1.399812317E0,-1.243015575E0,-2.202467211E0,2.890575040E0
2.105589546E1,-1.820656016E0,-7.178479745E-1,-2.890698527E0,3.490878402E0
2.106592046E1,-1.277035261E0,8.327377953E-2,-2.551923716E0,2.854832435E0
2.107594546E1,3.184741554E-1,7.104569478E-1,-8.754726094E-1,1.171591717E0
2.108597146E1,1.363393958E0,1.130738510E0,2.441602544E0,3.016427630E0
2.109599646E1,1.317453116E0,7.797792707E-1,7.386126214E0,7.543115992E0
2.110602146E1,7.686849099E-1,-2.616848275E-1,1.197070991E1,1.199821866E1
2.111604646E1,8.516750264E-1,-2.632824330E-1,1.196071935E1,1.199389326E1
2.112607246E1,9.259726721E-1,-2.516735172E-1,1.195108665E1,1.198954699E1
2.113609746E1,9.622587383E-1,-2.343019512E-1,1.194545227E1,1.198643689E1
2.114612246E1,9.387812173E-1,-2.218784451E-1,1.194677842E1,1.198566039E1
2.115614846E1,8.510452082E-1,-2.138779192E-1,1.195596440E1,1.198812356E1
2.116617346E1,7.290622763E-1,-2.061075544E-1,1.197039649E1,1.199434885E1
2.117619846E1,6.284018742E-1,-2.095952723E-1,1.198442280E1,1.200271673E1
2.118622346E1,6.038011761E-1,-2.422931215E-1,1.199109564E1,1.200873251E1
2.119624946E1,6.607350764E-1,-3.141639534E-1,1.199040801E1,1.201270802E1
2.120627446E1,7.478333004E-1,-4.182417608E-1,1.199035421E1,1.202093070E1
2.121629946E1,8.243460906E-1,-5.479036948E-1,1.199677913E1,1.203754354E1
2.122632446E1,8.643232848E-1,-6.990072955E-1,1.201287769E1,1.206419895E1
2.123635046E1,8.635108873E-1,-8.608747432E-1,1.203800434E1,1.209959937E1
2.124637546E1,8.432771091E-1,-1.013129076E0,1.206651186E1,1.213829705E1
2.125640046E1,8.319214509E-1,-1.131808550E0,1.208996387E1,1.217129041E1
2.126642546E1,8.538592538E-1,-1.199311731E0,1.210055785E1,1.218978772E1
2.127645146E1,6.611389728E-1,1.769559830E0,7.691846715E0,7.920413664E0
2.128647646E1,-7.687588041E-1,6.610983346E-1,6.053965012E0,6.138284245E0
2.129650146E1,-2.274625507E0,-2.261077362E-1,4.835271953E0,5.348354959E0
2.130652746E1,-2.832107672E0,-7.967388274E-1,4.089426852E0,5.037761269E0
2.131655246E1,-2.230220728E0,-1.225010683E0,3.959941431E0,4.706981178E0
2.132657746E1,-1.087447772E0,-1.323357634E0,3.574910467E0,3.964063941E0
2.133660246E1,3.035428517E-1,-1.431139360E0,2.674981293E0,3.048905221E0
2.134662846E1,1.522932021E0,-1.671918053E0,1.425536558E0,2.673347414E0
2.135665346E1,2.309590541E0,-1.701903744E0,-4.763972175E-1,2.908202044E0
2.136667846E1,2.529919474E0,-1.329476599E0,-3.498337085E0,4.517340250E0
2.137670346E1,2.473007062E0,-7.871039316E-1,-6.811627920E0,7.289277842E0
2.138672946E1,1.925540008E0,-7.044397974E-1,-9.666177791E0,9.881241462E0
2.139675446E1,6.429498929E-1,-7.965642880E-1,-1.233687892E1,1.237927626E1
2.140677946E1,-5.959938276E-1,-9.108348155E-1,-1.504644708E1,1.508576808E1
2.141680446E1,-1.613100618E0,-1.042627256E0,-1.719388965E1,1.730083832E1
2.142683046E1,-2.415169036E0,-1.300646025E0,-1.819824718E1,1.840382900E1
2.143685546E1,-2.782686421E0,-1.717639771E0,-1.804048462E1,1.833446796E1
2.144688046E1,-2.626458759E0,-2.158358594E0,-1.713755758E1,1.747148183E1
2.145690646E1,-2.306222399E0,-2.492496709E0,-1.522358380E1,1.559771475E1
2.146693146E1,-2.026066802E0,-2.980982753E0,-1.268697979E1,1.318903564E1
2.147695646E1,-1.784053616E0,-3.431532938E0,-9.780732347E0,1.051765139E1
2.148698146E1,-1.446771014E0,-3.567317272E0,-7.464446159E0,8.398622229E0
2.149700746E1,-9.409924880E-1,-3.419725363E0,-5.841539176E0,6.834000904E0
2.150703246E1,-4.506841598E-1,-3.163661757E0,-4.733855506E0,5.711502418E0
2.151705746E1,-5.404829934E-2,-2.887855611E0,-4.389184363E0,5.254290687E0
2.152708246E1,2.589570283E-1,-2.502248111E0,-4.828211440E0,5.444256613E0
2.153710846E1,3.053296146E-1,-2.005333891E0,-5.767018166E0,6.113353312E0
2.154713346E1,6.902652696E-2,-1.693297227E0,-6.628633459E0,6.841841981E0
2.155715846E1,-2.132551908E-1,-1.566722404E0,-7.187510916E0,7.359375655E0
2.156718346E1,-5.274200944E-1,-1.455011057E0,-7.493966412E0,7.652108318E0
2.157720946E1,-9.295662978E-1,-1.363206555E0,-8.001304171E0,8.169656911E0
2.158723446E1,-1.323224756E0,-1.215418910E0,-8.710121194E0,8.893502015E0
2.159725946E1,-1.568808837E0,-1.097246536E0,-9.261997780E0,9.457785893E0
2.160728446E1,-1.715789712E0,-1.042392198E0,-9.613966248E0,9.821347303E0
2.161731046E1,-1.735492782E0,-1.073338002E0,-9.784039532E0,9.994569487E0
2.162733546E1,-1.654640408E0,-1.055276391E0,-1.000011871E1,1.019086931E1
2.163736046E1,-1.311624903E0,-1.032940173E0,-1.012616129E1,1.026286840E1
2.164738546E1,-1.066942098E0,-1.033489373E0,-1.002384905E1,1.013331217E1
2.165741146E1,-9.585836902E-1,-1.358021829E0,-9.632486134E0,9.774860362E0
2.166743646E1,-9.134625542E-1,-1.963490046E0,-8.925116297E0,9.184084490E0
2.167746146E1,-9.974159995E-1,-2.595142826E0,-8.157279233E0,8.618051372E0
2.168748646E1,-9.423008756E-1,-3.113215488E0,-7.689468652E0,8.349129881E0
2.169751246E1,-8.415678218E-1,-3.327149906E0,-7.736935764E0,8.463943402E0
2.170753746E1,-7.050216684E-1,-3.304348689E0,-7.924688689E0,8.614897947E0
2.171756246E1,-8.115679510E-1,-2.758174893E0,-8.202579952E0,8.691863387E0
2.172758846E1,-7.180233910E-1,-1.929972783E0,-8.415661846E0,8.663931950E0
2.173761346E1,-2.775500046E-1,-1.187306520E0,-7.712458150E0,7.808248298E0
2.174763846E1,2.083889917E-1,-3.826280513E-1,-5.584085686E0,5.601057324E0
2.175766346E1,9.398596631E-1,-1.909943292E-1,-1.067955347E0,1.435389718E0
2.176768946E1,1.776088538E0,-4.163717481E-1,5.891777868E0,6.167730731E0
2.177771446E1,3.097140031E0,-7.592540820E-1,1.303551828E1,1.341989121E1
2.178773946E1,4.852318926E0,-4.717649071E-1,1.884912063E1,1.946938390E1
2.179776446E1,4.683719725E0,-3.007148458E-1,1.885143730E1,1.942689754E1
2.180779046E1,4.570822270E0,-1.205591349E-1,1.884822367E1,1.939490877E1
2.181781546E1,4.524629266E0,4.403428473E-2,1.883845648E1,1.937425228E1
2.182784046E1,4.527715719E0,1.645199639E-1,1.882620773E1,1.936371281E1
2.183786546E1,4.547214429E0,2.256048026E-1,1.881721705E1,1.936015791E1
2.184789146E1,4.558909153E0,2.251436035E-1,1.881508165E1,1.936082746E1
2.185791646E1,4.549550099E0,1.756126437E-1,1.882111481E1,1.936397708E1
2.186794146E1,4.524087814E0,9.909568727E-2,1.883303728E1,1.936905996E1
2.187796646E1,4.505479635E0,1.923792422E-2,1.884469429E1,1.937581533E1
2.188799246E1,4.508295069E0,-4.266581699E-2,1.885090871E1,1.938255153E1
2.189801746E1,4.528275005E0,-7.401500590E-2,1.885068184E1,1.938708226E1
2.190804246E1,4.552391846E0,-7.476710401E-2,1.884623795E1,1.938841269E1
2.191806746E1,2.654786472E0,5.476067147E0,8.075513524E0,1.011183076E1
2.192809346E1,2.258388666E0,3.597871605E0,8.220036814E0,9.252783618E0
2.193811846E1,1.734938466E0,1.638768725E0,8.304408628E0,8.640531064E0
2.194814346E1,1.034795641E0,-1.411400183E-1,8.034001801E0,8.101599068E0
2.195816846E1,1.210516897E-1,-1.567223656E0,7.234324309E0,7.403127158E0
2.196819446E1,-8.111095293E-1,-2.510734760E0,5.193134415E0,5.824974915E0
2.197821946E1,-9.572042589E-1,-3.015385723E0,2.648132048E0,4.125699262E0
2.198824446E1,-7.674928088E-1,-3.270673404E0,6.333879411E-2,3.360113321E0
2.199826946E1,-8.725580648E-1,-3.357331479E0,-2.714162316E0,4.404510111E0
2.200829546E1,-1.191933861E0,-3.388464687E0,-5.891244017E0,6.899938792E0
2.201832058E1,-1.731639175E0,-3.421847318E0,-9.086284271E0,9.862462936E0
2.202834558E1,-2.303569956E0,-3.479051506E0,-1.211223708E1,1.281079705E1
2.203837058E1,-2.867992035E0,-3.389475085E0,-1.478598871E1,1.543824413E1
2.204839658E1,-3.562190434E0,-3.504364979E0,-1.682750546E1,1.755376639E1
2.205842158E1,-4.130984476E0,-3.792330995E0,-1.783474800E1,1.869558887E1
2.206844658E1,-4.756842665E0,-4.169123817E0,-1.781910553E1,1.890845492E1
2.207847258E1,-5.220192990E0,-4.543841170E0,-1.710759060E1,1.845444563E1
2.208849758E1,-5.337725533E0,-4.762753615E0,-1.612340597E1,1.763914272E1
2.209852258E1,-5.090861351E0,-4.693521997E0,-1.499917000E1,1.652032442E1
2.210854758E1,-4.561542739E0,-4.277208429E0,-1.392975870E1,1.526893452E1
2.211857258E1,-4.026649099E0,-3.890413067E0,-1.308722170E1,1.423462640E1
2.212859858E1,-3.406182919E0,-3.414695881E0,-1.259354128E1,1.348552973E1
2.213862358E1,-2.585459837E0,-2.755286076E0,-1.195504521E1,1.253791490E1
2.214864858E1,-1.424955199E0,-2.165645540E0,-1.108760493E1,1.138663694E1
2.215867458E1,-3.889405592E-1,-1.689915052E0,-9.896992536E0,1.004776338E1
2.216869958E1,1.334736608E-1,-1.364133485E0,-8.607244112E0,8.715694269E0
2.217872458E1,3.054617617E-1,-1.239693187E0,-7.571092356E0,7.677993589E0
2.218874958E1,3.014346381E-1,-1.231205954E0,-6.788273556E0,6.905605608E0
2.219877558E1,1.826119070E-1,-1.181700502E0,-6.226032781E0,6.339814459E0
2.220880058E1,6.538999736E-2,-1.079903109E0,-5.898542511E0,5.996938414E0
2.221882558E1,-8.950157583E-2,-9.712754372E-1,-5.868486069E0,5.948992793E0
2.222885058E1,-3.079960911E-1,-7.332727832E-1,-6.182027221E0,6.232977709E0
2.223887658E1,-4.669799843E-1,-3.584594625E-1,-6.845948153E0,6.871213110E0
2.224890158E1,-4.207736783E-1,-9.566856109E-2,-7.572216775E0,7.584501952E0
2.225892658E1,-4.837037520E-1,-5.311815351E-2,-7.752044969E0,7.767302753E0
2.226895158E1,-4.368488435E-1,-1.856815490E-1,-7.400675840E0,7.415882783E0
2.227897758E1,-3.217662840E-1,-3.623689840E-1,-7.015463612E0,7.032181348E0
2.228900258E1,-5.297529142E-1,-7.693753199E-1,-6.408688104E0,6.476407935E0
2.229902758E1,-8.240060019E-1,-1.218503755E0,-5.358072090E0,5.556318368E0
2.230905258E1,-1.224406665E0,-1.028480648E0,-4.822502219E0,5.080695994E0
2.231907858E1,-1.092901031E0,-6.790487020E-1,-5.071889475E0,5.232552212E0
2.232910358E1,-8.762485349E-1,-1.344538003E-1,-5.244000514E0,5.318404902E0
2.233912858E1,-4.213228780E-1,4.756664617E-1,-4.781825479E0,4.823860120E0
2.234915358E1,5.010173576E-1,7.285937682E-1,-2.623755591E0,2.768747130E0
2.235917958E1,8.671773107E-1,1.153433893E0,5.795181280E-1,1.555071540E0
2.236920458E1,9.874024965E-1,1.788854180E0,3.709059042E0,4.234628903E0
2.237922958E1,9.208063647E-1,2.461158849E0,5.274011933E0,5.892400963E0
2.238925458E1,9.788819338E-1,2.924629920E0,5.518620844E0,6.321933725E0
2.239928058E1,2.482815474E0,2.089412320E0,7.560018899E0,8.227022686E0
2.240930558E1,3.853343182E0,-3.142993165E-1,1.397956645E1,1.450432059E1
2.241933058E1,3.952922141E0,-1.763651803E-1,1.395797035E1,1.450798519E1
2.242935558E1,4.058580451E0,-1.051638180E-1,1.394133385E1,1.452046570E1
2.243938158E1,4.116508232E0,-9.549946692E-2,1.393413242E1,1.452979031E1
2.244940658E1,4.121406444E0,-1.422423281E-1,1.393567023E1,1.453303577E1
2.245943158E1,4.112269000E0,-2.408066131E-1,1.394186711E1,1.453768904E1
2.246945658E1,4.120611808E0,-3.686358105E-1,1.394909193E1,1.454965635E1
2.247948258E1,4.156810166E0,-4.939659809E-1,1.395469006E1,1.456902357E1
2.248950758E1,4.210197876E0,-5.909944582E-1,1.395753999E1,1.459068070E1
2.249953258E1,-3.347104114E-1,6.838690588E0,8.501628195E0,1.091592424E1
2.250955758E1,-9.264591604E-1,7.347091956E0,7.159597478E0,1.030038460E1
2.251958358E1,-6.278755517E-1,6.917757223E0,7.801792495E0,1.044593504E1
2.252960858E1,2.474841334E-1,5.573946614E0,9.354161593E0,1.089176149E1
2.253963358E1,1.924020902E0,3.703214458E0,1.042510253E1,1.122935512E1
2.254965858E1,1.888720530E0,3.746118695E0,1.042454353E1,1.123707161E1
2.255968458E1,1.852626691E0,3.817327842E0,1.042171465E1,1.125239325E1
