"Time (s)","Linear Acceleration x (m/s^2)","Linear Acceleration y (m/s^2)","Linear Acceleration z (m/s^2)","Absolute acceleration (m/s^2)"
4.002430417E0,2.714432457E0,-3.413197532E0,-1.832311271E0,4.730266964E0
4.012455417E0,2.205161608E0,-2.050815580E0,-1.908512770E0,3.565249396E0
4.022480417E0,1.306390476E0,-2.447293639E-1,-1.682936546E0,2.144486874E0
4.032505417E0,6.832471490E-4,2.446104316E0,-1.085238547E0,2.676036153E0
4.042530417E0,-5.875960565E-1,5.048907579E0,-6.908575925E-1,5.129719395E0
4.052555417E0,-6.515666422E-1,6.982433276E0,-7.281701374E-1,7.050471281E0
4.062580417E0,-1.024731267E0,8.564179954E0,-6.297318234E-1,8.648226097E0
4.072605417E0,-1.407080114E0,9.855701838E0,-3.520922832E-1,9.961862383E0
4.082629417E0,-1.620397651E0,1.066926939E1,-4.606563668E-1,1.080144445E1
4.092654417E0,-2.049385644E0,1.095505907E1,-5.572511999E-1,1.115902458E1
4.102679417E0,-2.631839074E0,1.106010430E1,-8.403656343E-1,1.139994291E1
4.112704417E0,-3.303943184E0,1.086664215E1,-1.897827276E0,1.151528118E1
4.122729417E0,-3.876702223E0,1.051812354E1,-3.614694045E0,1.177818985E1
4.132754417E0,-4.264900040E0,1.021151543E1,-4.513543238E0,1.195142219E1
4.142779417E0,-4.792811812E0,9.801580594E0,-2.807307876E0,1.126601104E1
4.152804417E0,-6.043704318E0,9.310309814E0,1.210226583E0,1.116570101E1
4.162828417E0,-6.912258502E0,9.045405217E0,5.499372979E0,1.264285475E1
4.172853417E0,-4.961659520E0,8.791012160E0,7.782766825E0,1.274642771E1
4.182878417E0,-3.694610865E0,7.744765186E0,8.337167653E0,1.196410890E1
4.192903417E0,-3.252532710E0,7.213907586E0,9.619329899E0,1.245596000E1
4.202928417E0,-2.623979832E0,7.143045765E0,1.011599064E1,1.265865868E1
4.212953417E0,-2.356339615E0,7.225804331E0,9.946637735E0,1.251799452E1
4.222978417E0,-2.017840793E0,7.807004703E0,1.000464913E1,1.284966957E1
4.233003417E0,-1.471778386E0,8.685638902E0,9.888200662E0,1.324322344E1
4.243027417E0,-1.147113783E0,9.385561141E0,9.424393085E0,1.335004917E1
4.253052417E0,-9.742581019E-1,9.678385023E0,9.002027648E0,1.325355866E1
4.263077417E0,-8.473422396E-1,9.650306693E0,7.984052546E0,1.255354544E1
4.273102667E0,-1.356763654E0,9.272890558E0,6.851487805E0,1.160905647E1
4.283127667E0,-1.503815573E0,9.203136199E0,5.926433730E0,1.104906303E1
4.293152667E0,-1.189285364E0,9.502687302E0,5.175919628E0,1.088602818E1
4.303177667E0,-1.363203193E0,9.543023735E0,4.605116482E0,1.068338536E1
4.313202667E0,-1.958647967E0,9.060656510E0,3.851113346E0,1.003807114E1
4.323226667E0,-2.778616174E0,8.424343207E0,2.712896686E0,9.276317952E0
4.333251667E0,-4.093103582E0,7.952162417E0,-8.839069256E-1,8.987306353E0
4.343276667E0,-5.700928842E0,7.052271250E0,-3.692532180E0,9.791318264E0
4.353301667E0,-5.643235534E0,7.410168210E0,-8.439550061E0,1.256911713E1
4.363326667E0,-5.414965498E0,7.145419734E0,-1.977189429E1,2.170959876E1
4.373351667E0,-5.049040310E0,5.309369461E0,-2.613526472E1,2.714284941E1
4.383376667E0,-8.353811168E0,2.830204988E0,-1.488434238E1,1.730144125E1
4.393401667E0,-1.411368521E1,-3.102474153E-1,-5.384227855E0,1.510901298E1
4.403425667E0,-1.357416613E1,-5.959269939E0,-2.954369443E0,1.511618944E1
4.413450667E0,-4.641700172E0,-1.214157256E1,-1.385939331E1,1.900120911E1
4.423475667E0,1.691466172E0,-2.438282378E1,-4.116704581E1,4.787597325E1
4.433500667E0,1.348067090E0,-2.463982528E1,-4.102506606E1,4.787477749E1
4.443525667E0,7.375265595E-1,-2.493009042E1,-4.106382141E1,4.804467486E1
4.453550667E0,2.896029434E-1,-2.516681612E1,-4.111595050E1,4.820761236E1
4.463575667E0,6.265847057E-2,-2.529975140E1,-4.114469542E1,4.830080028E1
4.473600667E0,9.797567650E0,-9.225545653E0,1.952348586E1,2.371222310E1
4.483624667E0,6.339944143E0,-5.267367157E0,8.610764136E0,1.191995417E1
4.493649667E0,3.841313705E-1,-6.167047239E0,2.199461743E0,6.558784988E0
4.503674667E0,3.274221495E0,-8.419780040E0,-4.239841797E0,9.979452930E0
4.513699667E0,7.963386147E0,-1.190923228E1,-1.222554326E1,1.883372614E1
4.523724667E0,1.072772985E1,-1.925821406E1,-1.618275872E1,2.734674891E1
4.533749667E0,1.055824246E1,-1.921596208E1,-1.639578097E1,2.737793484E1
4.543774667E0,1.034559677E1,-1.919308777E1,-1.663810947E1,2.742686051E1
4.553799667E0,1.021656860E1,-1.914913776E1,-1.684702814E1,2.747526357E1
4.563823667E0,1.018749858E1,-1.906297553E1,-1.702917125E1,2.751681007E1
4.573848667E0,3.970193354E0,-8.056485515E0,1.842158567E0,9.168584531E0
4.583873667E0,3.476626665E0,-5.264428931E0,2.067754964E0,6.639032725E0
4.593898667E0,3.176245257E0,-3.822498534E0,1.105950555E0,5.091478725E0
4.603923667E0,2.274376854E0,-2.162185743E0,-2.957776031E-1,3.152034526E0
4.613948667E0,1.489899200E0,-7.772119045E-2,-1.556463610E0,2.156019290E0
4.623973667E0,5.844692579E-1,2.287804400E0,-1.748572711E0,2.938223922E0
4.633998667E0,-3.572324243E-1,4.340947173E0,-1.483437149E0,4.601306677E0
4.644022667E0,-8.393979201E-1,5.970501856E0,-1.326087991E0,6.173328975E0
4.654047667E0,-1.050027492E0,7.448006127E0,-1.162070669E0,7.610897532E0
4.664072667E0,-1.152787044E0,9.064719155E0,-9.104414441E-1,9.182970922E0
4.674097667E0,-1.497512567E0,1.039010694E1,-1.234322958E0,1.056978805E1
4.684122667E0,-2.003408110E0,1.111132357E1,-1.770982457E0,1.142854035E1
4.694147667E0,-2.596926519E0,1.125056332E1,-2.348783112E0,1.178286826E1
4.704172667E0,-3.216316811E0,1.118010086E1,-3.214421436E0,1.206945957E1
4.714197667E0,-3.731428151E0,1.084931919E1,-3.631786333E0,1.203416615E1
4.724221667E0,-4.185878429E0,1.038199335E1,-4.595887529E0,1.210080767E1
4.734246667E0,-4.552502943E0,9.795266771E0,-4.994449536E0,1.190029665E1
4.744271667E0,-4.876436352E0,9.108622974E0,-3.319970695E0,1.085213571E1
4.754296667E0,-5.334860982E0,8.596042017E0,-3.755400565E-1,1.012391774E1
4.764321667E0,-5.985779461E0,8.229750209E0,2.716173466E0,1.053261328E1
4.774346667E0,-6.092092366E0,8.246506575E0,4.581562728E0,1.122983424E1
4.784371667E0,-4.685151123E0,8.582156634E0,5.452299385E0,1.119516066E1
4.794396667E0,-3.728797781E0,8.888941913E0,6.386789111E0,1.156323036E1
4.804421667E0,-3.384230425E0,8.915695848E0,6.872110934E0,1.175451219E1
4.814445667E0,-3.674428031E0,8.668067434E0,6.868009112E0,1.165359874E1
4.824470667E0,-4.412549837E0,8.230159514E0,6.033385152E0,1.111790709E1
4.834495667E0,-4.679767007E0,7.974259629E0,6.924303181E0,1.155140729E1
4.844520667E0,-4.313613194E0,8.029973069E0,5.752707106E0,1.077874600E1
4.854545667E0,-3.806233042E0,8.219477236E0,5.196711742E0,1.044284583E1
4.864570667E0,-3.307231951E0,8.603085573E0,4.577706489E0,1.029107678E1
4.874595667E0,-2.998535802E0,8.924191852E0,4.517887134E0,1.044240017E1
4.884620667E0,-2.824526757E0,9.075765715E0,4.636300560E0,1.057557363E1
4.894644667E0,-2.631042976E0,9.110017535E0,4.862933084E0,1.065659067E1
4.904669667E0,-2.497376211E0,8.940382208E0,5.101465276E0,1.059208525E1
4.914694667E0,-2.512395954E0,8.474457353E0,5.147965844E0,1.022888621E1
4.924719667E0,-2.548854513E0,8.084381996E0,4.970751940E0,9.826610119E0
4.934744667E0,-2.455159314E0,7.966599192E0,4.797672310E0,9.618324674E0
4.944769667E0,-2.378016120E0,7.818762285E0,4.394520532E0,9.278998601E0
4.954794667E0,-2.187615576E0,7.669820253E0,3.951171777E0,8.900761936E0
4.964819667E0,-1.960552990E0,7.235218933E0,3.509664896E0,8.277071264E0
4.974844667E0,-1.694988827E0,5.799419342E0,2.995511329E0,6.743837183E0
4.984868667E0,-1.145905164E0,2.532170067E0,-8.266616904E0,8.721349605E0
4.994893667E0,6.205509639E-1,-3.715846490E0,-2.244306612E1,2.275706079E1
5.004918667E0,9.213992724E-1,-3.880015256E0,-2.192235520E1,2.228212630E1
5.014943667E0,9.732950655E-1,-3.928578136E0,-2.180700600E1,2.217941704E1
5.024968667E0,7.402101392E-1,-4.050396688E0,-2.176009730E1,2.214622900E1
5.034993667E0,2.558852667E-1,-4.265783554E0,-2.176782966E1,2.218334498E1
5.045018667E0,-3.274429071E-1,-4.481161065E0,-2.192374917E1,2.237942808E1
5.055043667E0,-8.337591577E-1,-4.655851895E0,-2.215254838E1,2.265187655E1
5.065067667E0,4.204743885E0,-1.018769388E1,1.379928861E1,1.766038912E1
5.075092667E0,1.846349559E0,-6.933234803E0,8.227464532E0,1.091649780E1
5.085117667E0,-2.864591879E-1,-7.707225477E0,-4.816802353E0,9.093127533E0
5.095142667E0,3.534292783E0,-1.179318376E1,-1.307963435E1,1.796238413E1
5.105167667E0,1.026642781E1,-1.757587188E1,-8.315059916E0,2.198751995E1
5.115192667E0,1.031330260E1,-1.740304690E1,-8.546164683E0,2.196058247E1
5.125217667E0,1.036497093E1,-1.725984859E1,-8.738187245E0,2.194745798E1
5.135242667E0,1.043932647E1,-1.715586170E1,-8.842501572E0,2.194294788E1
5.145266667E0,1.055796998E1,-1.705090652E1,-8.902478802E0,2.194215742E1
5.155291667E0,8.541101578E0,-8.996388593E0,-1.587608804E0,1.250623547E1
5.165316667E0,7.756169010E0,-7.013589579E0,-1.146800373E0,1.051968382E1
5.175341667E0,6.574931461E0,-6.423632417E0,-1.813582055E0,9.369197245E0
5.185366667E0,5.219864377E0,-6.442257553E0,-3.530963086E0,9.012067843E0
5.195391667E0,5.094159765E0,-5.297569780E0,-4.912332408E0,8.840006729E0
5.205416667E0,4.061955464E0,-2.899548873E0,-4.710179838E0,6.862409195E0
5.215441667E0,2.973165318E0,-5.510603142E-1,-3.435035713E0,4.576335851E0
5.225465667E0,2.418532355E0,1.393756941E0,-2.129576114E0,3.510975874E0
5.235490667E0,1.119056796E0,3.231338015E0,-1.461757135E0,3.718947083E0
5.245515667E0,-4.580737978E-2,5.451286647E0,-1.486530911E0,5.650521974E0
5.255540667E0,-7.669026786E-1,7.492978817E0,-1.593282065E0,7.698793348E0
5.265565667E0,-1.205333340E0,9.110404621E0,-2.350774966E0,9.485696799E0
5.275590208E0,-1.868820993E0,1.021355260E1,-3.074676490E0,1.082879422E1
5.285615208E0,-2.265026279E0,1.099794489E1,-3.195585215E0,1.167462636E1
5.295640208E0,-2.353909220E0,1.145404291E1,-3.204900999E0,1.212465992E1
5.305664208E0,-2.612422225E0,1.144508732E1,-3.133402416E0,1.215043145E1
5.315689208E0,-3.046523608E0,1.096192253E1,-3.039880587E0,1.177649887E1
5.325714208E0,-3.529868487E0,1.033227564E1,-2.568062908E0,1.121654308E1
5.335739208E0,-3.878197064E0,9.858552940E0,-9.338190508E-1,1.063501277E1
5.345764208E0,-4.676821472E0,9.249273654E0,1.342209642E0,1.045099272E1
5.355789208E0,-5.629051359E0,8.812332278E0,3.304823190E0,1.096655259E1
5.365814208E0,-4.724695551E0,9.096543211E0,4.261893694E0,1.110106231E1
5.375839208E0,-2.725897385E0,9.457797058E0,4.704288476E0,1.090920583E1
5.385863208E0,-2.207894889E0,9.494327538E0,5.164476042E0,1.103126774E1
5.395888208E0,-2.084100271E0,9.488158141E0,5.407237233E0,1.111786101E1
5.405913208E0,-2.149755439E0,9.346743815E0,5.906913970E0,1.126386706E1
5.415938208E0,-2.654461659E0,8.926461741E0,6.561726109E0,1.139228403E1
5.425963208E0,-3.047131134E0,8.485492803E0,6.934750986E0,1.137450515E1
5.435988208E0,-2.983106461E0,8.285829685E0,6.956709035E0,1.122273132E1
5.446013208E0,-2.784585596E0,8.364491692E0,6.764773012E0,1.111219115E1
5.456038208E0,-2.717083585E0,8.615974005E0,6.249987654E0,1.098544023E1
5.466063208E0,-2.484563792E0,8.887797613E0,5.991513825E0,1.100291968E1
5.476087208E0,-2.437127378E0,8.995212134E0,6.069674726E0,1.112179763E1
5.486112208E0,-2.818681880E0,8.915567209E0,5.563446769E0,1.088045248E1
5.496137208E0,-3.007023620E0,8.760686746E0,5.006401244E0,1.052881174E1
5.506162208E0,-2.889501894E0,8.905125836E0,4.719732141E0,1.048457719E1
5.516187208E0,-2.761003776E0,9.134069472E0,4.743419797E0,1.065619061E1
5.526212208E0,-2.631158166E0,9.205553437E0,4.607757377E0,1.062528284E1
5.536237208E0,-2.511774687E0,9.074280522E0,4.242533271E0,1.032718101E1
5.546262208E0,-2.571722388E0,8.906557819E0,3.697963366E0,9.980754545E0
5.556286208E0,-2.770279506E0,8.669799964E0,2.976198269E0,9.575888267E0
5.566311208E0,-2.846219927E0,8.454751652E0,1.870655557E0,9.114995644E0
5.576336208E0,-2.751087190E0,8.410191776E0,5.329821852E-1,8.864754731E0
5.586361208E0,-2.606840473E0,8.485459474E0,-2.951329476E-1,8.881764644E0
5.596386208E0,-2.021994362E0,8.187539159E0,6.989764515E-1,8.462436219E0
5.606411208E0,-8.916132635E-1,6.723789293E0,1.579321253E-1,6.784486658E0
5.616436208E0,9.556221485E-2,3.700194663E0,-8.318339619E0,9.104688172E0
5.626461208E0,3.464390489E-1,-1.537683815E0,-8.074254034E0,8.226668203E0
5.636486208E0,1.425836520E0,-8.620631897E0,-1.095021407E1,1.400912175E1
5.646510208E0,9.209151229E-1,-2.312981225E1,-4.436291871E1,5.003903332E1
5.656535208E0,8.362521181E-1,-2.324507724E1,-4.423494421E1,4.997762722E1
5.666560208E0,4.541675654E-1,-2.337779266E1,-4.426164961E1,5.005817700E1
5.676585208E0,-4.390381873E-2,-2.353801105E1,-4.436274096E1,5.022044083E1
5.686610208E0,-4.605936554E-1,-2.371586698E1,-4.442698548E1,5.036279909E1
5.696635208E0,4.147301424E0,-1.177970710E1,3.928317350E0,1.309172585E1
5.706660208E0,-1.230531916E-1,-6.057529474E0,3.402347438E0,6.948724596E0
5.716685208E0,-1.863706726E0,-3.906879703E0,4.398708308E-1,4.350930719E0
5.726709208E0,-4.622764841E-1,-6.771999586E0,-5.461670718E0,8.712262907E0
5.736734208E0,3.927249356E0,-1.207427813E1,-1.215727818E1,1.757870566E1
5.746759208E0,9.151366121E0,-1.824432323E1,-1.363974850E1,2.454884053E1
5.756784208E0,9.101247296E0,-1.817002968E1,-1.379388227E1,2.456122695E1
5.766809208E0,9.046872869E0,-1.810838249E1,-1.393835878E1,2.457716970E1
5.776834208E0,9.032236118E0,-1.803878191E1,-1.406504807E1,2.459277372E1
5.786859208E0,7.510025790E0,-8.950031868E0,-2.736315077E0,1.199962408E1
5.796884208E0,6.829550221E0,-6.537602836E0,-2.661022235E0,9.821611192E0
5.806908208E0,6.432835935E0,-5.866797978E0,-2.957514368E0,9.194976232E0
5.816933208E0,5.530362053E0,-7.001883454E0,-4.496923989E0,9.991676621E0
5.826958208E0,5.720065609E0,-8.485574080E0,-5.604819328E0,1.166782404E1
5.836983208E0,5.634737191E0,-9.259216259E0,-5.316658015E0,1.207270481E1
5.847008208E0,3.979786881E0,-8.403121907E0,-4.284033007E0,1.023738737E1
5.857033208E0,1.830112133E0,-5.892323998E0,-3.049356000E0,6.882395261E0
5.867058208E0,7.812406361E-1,-3.306980520E0,-1.778830590E0,3.835452433E0
5.877083208E0,2.961132333E-1,-8.588951683E-1,-1.285032351E0,1.573750965E0
5.887107208E0,2.071791297E-1,1.738143910E0,-1.559697998E0,2.344509605E0
5.897132208E0,3.511302701E-1,4.537029456E0,-1.696312052E0,4.856480550E0
5.907157208E0,-9.399223745E-2,7.084352583E0,-1.860774640E0,7.325255513E0
5.917182208E0,-7.205099925E-1,8.876481496E0,-1.642624379E0,9.055897153E0
5.927207208E0,-8.900064486E-1,1.000991046E1,-1.043448351E0,1.010342532E1
5.937232208E0,-1.108313414E0,1.051109870E1,-1.490712547E-1,1.057041989E1
5.947257208E0,-1.491498121E0,1.081175317E1,7.114085090E-1,1.093730659E1
5.957282208E0,-1.954532112E0,1.090937945E1,9.755971143E-1,1.112594021E1
5.967307208E0,-2.391971378E0,1.083019997E1,3.422082961E-1,1.109647984E1
5.977331208E0,-2.649521054E0,1.084050510E1,-8.092030446E-1,1.118889281E1
5.987356208E0,-3.016627379E0,1.099941254E1,-2.542529872E0,1.168552845E1
5.997381208E0,-3.582858587E0,1.104614817E1,-3.202911484E0,1.204628187E1
6.007406208E0,-4.970170727E0,1.042310980E1,-1.177402360E0,1.160732920E1
6.017431208E0,-7.142080389E0,9.227901496E0,2.103863275E0,1.185705355E1
6.027456208E0,-7.638387376E0,8.498780601E0,4.770578652E0,1.238275632E1
6.037481208E0,-4.306760257E0,8.714036490E0,6.359214227E0,1.161560250E1
6.047506208E0,-2.649326342E0,8.467809654E0,7.458860899E0,1.159126120E1
6.057530208E0,-1.845703734E0,8.163762041E0,7.357590632E0,1.114395679E1
6.067555208E0,-1.839375292E0,7.772886785E0,7.230216056E0,1.077390805E1
6.077580208E0,-2.518283515E0,7.799155986E0,7.130495886E0,1.086335848E1
6.087605208E0,-2.594501679E0,8.386866063E0,6.265659361E0,1.078561304E1
6.097630208E0,-2.129651835E0,9.137947345E0,5.012047316E0,1.063758041E1
6.107655208E0,-1.864932741E0,9.675756699E0,4.124994881E0,1.068240725E1
6.117680208E0,-1.779720390E0,9.937145365E0,3.587902103E0,1.071388371E1
6.127705208E0,-1.973554420E0,9.844175806E0,3.514725661E0,1.063748141E1
6.137729208E0,-2.330370961E0,9.527490606E0,3.728666803E0,1.049317217E1
6.147754208E0,-2.510388897E0,9.388119882E0,3.884045157E0,1.046540272E1
6.157779208E0,-2.579386334E0,9.433497199E0,3.936138001E0,1.054216703E1
6.167804208E0,-2.609326417E0,9.485328088E0,3.907029392E0,1.058512692E1
6.177829208E0,-2.535255935E0,9.502149358E0,3.763980477E0,1.053023808E1
6.187854208E0,-2.310823427E0,9.482376999E0,3.621751927E0,1.041020967E1
6.197879208E0,-2.036993640E0,9.448905197E0,3.518140435E0,1.028632416E1
6.207904208E0,-1.753248145E0,9.411059679E0,3.418626379E0,1.016508385E1
6.217928208E0,-1.534497668E0,9.343047205E0,3.285635260E0,1.002210623E1
6.227953208E0,-1.321794673E0,9.257128803E0,3.130941322E0,9.861255924E0
6.237978208E0,-1.146731083E0,9.100778934E0,2.705154680E0,9.563316958E0
6.248003208E0,-8.967652452E-1,8.762361388E0,1.876899506E0,9.005882342E0
6.258028208E0,-7.744338924E-1,7.968836921E0,5.721632078E-1,8.026797647E0
6.268053792E0,-6.359300181E-1,6.724765193E0,-1.853074442E0,7.004338568E0
6.278078792E0,-8.787023190E-1,3.728882858E0,-1.189976915E1,1.250124757E1
6.288103792E0,-1.025974970E0,-2.248248571E0,-1.421688388E1,1.443007393E1
6.298128792E0,1.875239190E0,-1.139702087E1,-9.216333364E0,1.477665075E1
6.308152792E0,6.030008385E-1,-1.738764299E1,-1.950575476E1,2.613748664E1
6.318177792E0,4.536258209E-1,-1.748489154E1,-1.942788856E1,2.614134776E1
6.328202792E0,2.019666293E-1,-1.763730507E1,-1.933147265E1,2.616908778E1
6.338227792E0,-4.933003485E-3,-1.786977399E1,-1.910702260E1,2.616117657E1
6.348252792E0,-1.202506211E-1,-1.809263944E1,-1.886568111E1,2.613947180E1
6.358277792E0,-2.329618424E-1,-1.823052731E1,-1.875247434E1,2.615457305E1
6.368302792E0,3.980696708E0,-6.322295492E0,7.954483761E0,1.091289047E1
6.378327792E0,-2.079249421E0,-6.093855886E0,7.436488867E-2,6.439245907E0
6.388351792E0,-2.866555081E0,-1.203619287E1,-7.880367964E0,1.466926297E1
6.398376792E0,4.062656545E0,-1.827036439E1,-8.848636470E0,2.070289257E1
6.408401792E0,4.051443047E0,-1.819598781E1,-8.962947198E0,2.068435606E1
6.418426792E0,4.038146186E0,-1.813585037E1,-9.061083357E0,2.067169381E1
6.428451792E0,4.040790005E0,-1.807075449E1,-9.157947162E0,2.065788343E1
6.438476792E0,4.078796322E0,-1.798585057E1,-9.262956723E0,2.063806598E1
6.448501792E0,4.139734834E0,-1.787966046E1,-9.390188627E0,2.061541426E1
6.458526792E0,4.206262700E0,-1.775641636E1,-9.549527593E0,2.059554430E1
6.468550792E0,4.276658791E0,-1.761994819E1,-9.740416964E0,2.058222795E1
6.478575792E0,4.362323716E0,-1.747598273E1,-9.948365003E0,2.057692413E1
6.488600792E0,2.657245226E0,-8.454488527E0,1.991871554E-1,8.864479904E0
6.498625792E0,2.747065183E0,-5.974432354E0,6.052575713E-1,6.603525255E0
6.508650792E0,1.800361500E0,-3.922382426E0,5.303696492E-1,4.348295918E0
6.518675792E0,4.436057398E-1,-1.407846977E0,3.796503568E-1,1.524123865E0
6.528700792E0,-6.818034714E-1,1.149463195E0,4.402929997E-1,1.407117456E0
6.538725792E0,-1.610991820E0,3.450853601E0,6.171782899E-1,3.858055761E0
6.548749792E0,-2.413192385E0,5.513706844E0,6.733291018E-1,6.056222645E0
6.558774792E0,-2.981124548E0,7.323527677E0,2.707214069E-1,7.911665519E0
6.568799792E0,-3.435607278E0,8.679348468E0,-3.463267824E-1,9.341007945E0
6.578824792E0,-3.842794220E0,9.509420956E0,-8.144332328E-1,1.028880245E1
6.588849792E0,-3.919213235E0,9.835599110E0,-9.576170723E-1,1.063091119E1
6.598874792E0,-3.689750367E0,9.919892571E0,-1.133168028E0,1.064436922E1
6.608899792E0,-3.531976701E0,9.963384161E0,-2.266155084E0,1.081107498E1
6.618924792E0,-3.630168116E0,1.013878660E1,-4.509730853E0,1.167522105E1
6.628949792E0,-3.899057006E0,1.017570826E1,-6.207756724E0,1.254128891E1
6.638973792E0,-4.404768947E0,9.820507447E0,-5.981268919E0,1.231340464E1
6.648998792E0,-6.010142469E0,9.256920058E0,-4.967988546E0,1.210344131E1
6.659023792E0,-8.778815453E0,8.950032452E0,-4.685643751E0,1.338379389E1
6.669048792E0,-1.012760672E1,8.845895296E0,-3.079038805E0,1.379488171E1
6.679073792E0,-7.657468595E0,9.785438186E0,4.141103375E-1,1.243234142E1
6.689098792E0,-4.464951122E0,1.056042230E1,2.903356287E0,1.182741668E1
6.699123792E0,-2.192604567E0,1.050977606E1,4.855638975E0,1.178304449E1
6.709148792E0,-1.986736237E-1,1.044541692E1,6.048671528E0,1.207197719E1
6.719172792E0,5.056256944E-1,1.031804235E1,7.025903231E0,1.249323703E1
6.729197792E0,7.105669485E-1,9.656391891E0,7.638008476E0,1.233247677E1
6.739222792E0,1.312122501E0,9.301243122E0,8.005653915E0,1.234201295E1
6.749247792E0,1.447784921E0,9.166267750E0,8.117611722E0,1.232932138E1
6.759272792E0,8.659241062E-1,9.012845582E0,7.762082884E0,1.192606979E1
6.769297792E0,9.836624712E-2,8.912557647E0,7.405861151E0,1.158836223E1
6.779322792E0,-6.978967631E-1,8.653307893E0,7.071983968E0,1.119731015E1
6.789347792E0,-1.507959202E0,8.325919949E0,6.745060294E0,1.082084665E1
6.799371792E0,-2.117348416E0,8.036092181E0,6.508959666E0,1.055596977E1
6.809396792E0,-2.554000647E0,7.871750922E0,5.813243914E0,1.011341617E1
6.819421792E0,-2.916726823E0,7.714597061E0,5.975425211E0,1.018469487E1
6.829446792E0,-3.350493453E0,7.576257786E0,5.369947200E0,9.872275389E0
6.839471792E0,-3.495532468E0,7.461368769E0,4.555987007E0,9.415295468E0
6.849496792E0,-3.431017214E0,7.318256997E0,4.076910010E0,9.052621710E0
6.859521792E0,-3.418269991E0,7.163963009E0,3.720561100E0,8.766385266E0
6.869546792E0,-3.476367926E0,6.882775086E0,3.611752603E0,8.514839030E0
6.879571792E0,-3.500468395E0,6.657585363E0,3.618720438E0,8.346967081E0
6.889595792E0,-3.556765387E0,6.288177574E0,3.507808989E0,8.030970123E0
6.899620792E0,-3.633226210E0,5.423411216E0,2.927232808E0,7.154188551E0
6.909645792E0,-2.970190839E0,4.053989802E0,-5.611134320E0,7.532708364E0
6.919670792E0,-1.548724528E0,-8.911548418E-1,-1.895340104E1,1.903743984E1
6.929695792E0,-1.208716539E0,-9.985695966E0,-1.827600111E1,2.086114417E1
6.939720792E0,-9.534133628E-1,-1.005364412E1,-1.797988174E1,2.062185502E1
6.949745792E0,-1.206365666E0,-9.962275529E0,-1.832252624E1,2.089060122E1
6.959770792E0,-1.486175985E0,-1.000681728E1,-1.843716324E1,2.103031382E1
6.969794792E0,-1.844746252E0,-1.017828103E1,-1.837708310E1,2.108833034E1
6.979819792E0,-2.223874453E0,-1.040370055E1,-1.827009542E1,2.114187762E1
6.989844792E0,9.950022104E0,-8.225570619E0,1.187215158E1,1.753884075E1
6.999869792E0,6.615967805E0,-3.753158743E0,8.578730750E0,1.146524539E1
7.009894792E0,1.043251154E0,-2.729139374E0,1.122257270E0,3.129861989E0
7.019919792E0,-1.386725079E0,-6.760467122E0,-3.700615663E0,7.830803180E0
7.029944792E0,1.987465969E0,-1.315966169E1,-1.000812472E1,1.665200520E1
7.039969792E0,7.336880379E0,-1.981947659E1,-1.294914672E1,2.478551728E1
7.049993792E0,7.400298110E0,-1.974400307E1,-1.302477812E1,2.478376312E1
7.060018792E0,7.460284696E0,-1.967517433E1,-1.309483711E1,2.478392809E1
7.070043792E0,7.532785492E0,-1.958566047E1,-1.319675408E1,2.478901514E1
7.080068792E0,6.295116464E0,-9.028176981E0,-9.393164860E0,1.446955483E1
7.090093792E0,6.124284212E0,-7.897854062E0,-6.267594790E0,1.179685129E1
7.100118792E0,6.602088854E0,-7.054325377E0,-2.918001808E0,1.009285977E1
7.110143792E0,6.597375998E0,-7.018898267E0,-1.541676879E0,9.755361118E0
7.120168792E0,4.874890348E0,-7.567664133E0,-1.011525038E0,9.058547303E0
7.130193792E0,3.929125143E0,-6.003640366E0,-1.449764788E0,7.320077866E0
7.140217792E0,3.428259082E0,-3.690730945E0,-1.744397214E0,5.330795145E0
7.150242792E0,2.633794675E0,-1.417913543E0,-1.594721650E0,3.389762580E0
7.160267792E0,1.844670531E0,1.015521026E0,-1.022939973E0,2.341046456E0
7.170292792E0,7.714564902E-1,3.200813211E0,-6.734089163E-1,3.360629390E0
7.180317792E0,-3.757087487E-1,5.385802510E0,-6.437386823E-1,5.437133917E0
7.190342792E0,-8.744613335E-1,7.122268268E0,-9.703334507E-1,7.241058964E0
7.200367792E0,-1.063048949E0,8.193542495E0,-1.353302687E0,8.372313889E0
7.210392792E0,-1.154444438E0,9.408152443E0,-1.942169051E0,9.675644422E0
7.220416792E0,-1.182495870E0,1.028532718E1,-1.881115934E0,1.052258755E1
7.230441792E0,-8.187730363E-1,1.097391166E1,-1.450652103E0,1.109961792E1
7.240466792E0,-7.169697958E-1,1.125476747E1,-7.455118096E-1,1.130219555E1
7.250491792E0,-1.209411773E0,1.124668194E1,-4.407734947E-1,1.132010657E1
7.260516792E0,-1.607201070E0,1.105013597E1,-9.211642143E-1,1.120433593E1
7.270541542E0,-2.118956985E0,1.071661313E1,-1.997745520E0,1.110525834E1
7.280566542E0,-2.700956379E0,1.014896075E1,-2.063370430E0,1.070299338E1
7.290591542E0,-3.427591622E0,9.508485986E0,-6.750762498E-1,1.012992685E1
7.300615542E0,-5.073409166E0,8.837057229E0,1.566097775E-1,1.019105430E1
7.310640542E0,-8.366528277E0,8.215840268E0,1.850904247E0,1.187116984E1
7.320665542E0,-7.278670762E0,8.978552247E0,4.811750651E0,1.251983997E1
7.330690542E0,-2.852395756E0,9.869470861E0,4.761529208E0,1.132319641E1
7.340715542E0,-1.150575335E0,9.989790187E0,5.110343689E0,1.127986455E1
7.350740542E0,-6.749508271E-1,1.017865993E1,5.576166801E0,1.162558871E1
7.360765542E0,-3.009917115E-1,1.026957244E1,5.884465925E0,1.183983333E1
7.370790542E0,-2.884538193E-1,1.027393563E1,6.134925560E0,1.196972308E1
7.380815542E0,-5.080840100E-1,1.019947953E1,6.020164597E0,1.185453136E1
7.390839542E0,-1.011947792E0,1.009681762E1,5.603292035E0,1.159166278E1
7.400864542E0,-1.515512489E0,9.942624207E0,5.479072616E0,1.145306906E1
7.410889542E0,-1.963416810E0,9.761290939E0,4.679776655E0,1.100173241E1
7.420914542E0,-2.368845201E0,9.611516265E0,3.874396959E0,1.063031628E1
7.430939542E0,-2.554913690E0,9.495882897E0,2.944254637E0,1.026489217E1
7.440964542E0,-2.495795708E0,9.445006274E0,2.678664747E0,1.012977712E1
7.450989542E0,-2.725304185E0,9.408654719E0,2.415606993E0,1.008886632E1
7.461014542E0,-2.748556223E0,9.225259724E0,2.227355300E0,9.880338553E0
7.471038542E0,-2.472394859E0,8.827452593E0,2.216008486E0,9.431190234E0
7.481063542E0,-2.199807605E0,8.617452766E0,2.410707903E0,9.214725079E0
7.491088542E0,-1.922480745E0,8.469126447E0,2.496946148E0,9.036413838E0
7.501113542E0,-1.750328776E0,8.320145824E0,2.521519949E0,8.868288460E0
7.511138542E0,-1.576285379E0,8.158286124E0,2.830261706E0,8.777966131E0
7.521163542E0,-1.134654829E0,7.866189051E0,3.637511342E0,8.740472557E0
7.531188542E0,-7.030528378E-1,7.495079722E0,4.905300547E0,8.985125307E0
7.541213542E0,-5.429721531E-1,7.177335007E0,5.551593293E0,9.090057461E0
7.551237542E0,-4.205992851E-1,6.683842869E0,5.595273748E0,8.726840641E0
7.561262542E0,-5.241371021E-1,5.536402227E0,5.431030723E0,7.773195227E0
7.571287542E0,-5.928872019E-2,2.023696779E0,-6.507331216E-1,2.126574100E0
7.581312542E0,-1.788116553E0,-2.349320968E1,-7.583017752E1,7.940619677E1
7.591337542E0,-2.104658789E0,-2.351110216E1,-7.605739097E1,7.963622438E1
7.601362542E0,-2.314451039E0,-2.364901225E1,-7.592981875E1,7.956110758E1
7.611387542E0,-2.542800305E0,-2.390058753E1,-7.560105555E1,7.932984002E1
7.621412542E0,-2.770681210E0,-2.418575624E1,-7.526233804E1,7.910149813E1
7.631436542E0,7.626531562E0,-1.033657451E1,1.471870597E1,1.953584044E1
7.641461542E0,2.622568898E0,-6.067504240E0,1.176417455E1,1.349400898E1
7.651486542E0,-2.982954141E0,-5.843632479E0,6.779233761E0,9.434196645E0
7.661511542E0,-4.786310293E0,-1.237239725E1,-2.732591570E0,1.354444671E1
7.671536542E0,-2.245228484E0,-1.759786911E1,-9.249785285E0,2.000711313E1
7.681561542E0,-2.150793905E0,-1.747644583E1,-9.386031842E0,1.995368805E1
7.691586542E0,-2.141536301E0,-1.741021324E1,-9.501091597E0,1.994924671E1
7.701611542E0,-2.166138168E0,-1.735574760E1,-9.627922382E0,1.996524527E1
7.711635542E0,-2.153304407E0,-1.729361509E1,-9.740228099E0,1.996441549E1
7.721660542E0,5.490925507E0,-1.011222854E1,-5.237811236E0,1.264286738E1
7.731685542E0,5.346180607E0,-9.164007216E0,-1.531326723E0,1.071940469E1
7.741710542E0,4.721723703E0,-8.881408945E0,8.215697595E-1,1.009203034E1
7.751735542E0,3.453699733E0,-9.347558917E0,2.142265156E0,1.019285041E1
7.761760542E0,2.444572345E0,-8.952397066E0,1.717063820E0,9.437672136E0
7.771785542E0,1.617597127E0,-7.734792175E0,7.909891140E-1,7.941617860E0
7.781810542E0,1.327793624E0,-5.854114197E0,5.474464425E-1,6.027718188E0
7.791834542E0,2.943412346E-1,-3.474431913E0,3.258258596E-1,3.502067442E0
7.801859542E0,-9.158613744E-1,-8.298929787E-1,3.923505092E-1,1.296712511E0
7.811884542E0,-1.865101287E0,1.744310383E0,5.995673534E-1,2.623109326E0
7.821909542E0,-2.928904234E0,3.676742651E0,5.296935649E-1,4.730485367E0
7.831934542E0,-3.631952979E0,5.610380030E0,-1.026092792E-1,6.684158525E0
7.841959542E0,-4.003158787E0,7.742267840E0,-1.079901209E0,8.782606572E0
7.851984542E0,-4.167666106E0,9.235547315E0,-1.771551830E0,1.028606683E1
7.862009542E0,-3.824289536E0,9.989173890E0,-1.940873162E0,1.087086814E1
7.872033542E0,-3.299351366E0,1.021791463E1,-1.762482945E0,1.088107738E1
7.882058542E0,-2.983028693E0,1.030081411E1,-1.476137924E0,1.082516581E1
7.892083542E0,-2.860839720E0,1.037956675E1,-1.447495776E0,1.086347338E1
7.902108542E0,-2.720808261E0,1.046227796E1,-1.962079990E0,1.098689290E1
7.912133542E0,-2.803017774E0,1.058094603E1,-2.668258749E0,1.126645163E1
7.922158542E0,-3.277320811E0,1.057776047E1,-3.365163825E0,1.157385743E1
7.932183542E0,-4.332685057E0,1.029911023E1,-5.570066986E0,1.248476983E1
7.942208542E0,-4.744491007E0,9.955074098E0,-5.232691998E0,1.220634101E1
7.952233542E0,-5.074835302E0,9.622240058E0,-1.919614002E0,1.104655489E1
7.962257542E0,-5.654041774E0,9.443812273E0,3.811902210E-1,1.101358636E1
7.972282542E0,-4.613488818E0,9.887840474E0,1.589359753E0,1.102632000E1
7.982307542E0,-2.554679216E0,1.010172461E1,3.375647005E0,1.095290914E1
7.992332542E0,-1.840337744E0,1.020380997E1,4.664908648E0,1.136951862E1
8.002357542E0,-1.227447802E0,1.038370307E1,4.965259066E0,1.157504709E1
8.012382542E0,-9.556317964E-1,1.038520698E1,4.764658346E0,1.146593761E1
8.022407542E0,-9.078363633E-1,1.013153488E1,4.615105281E0,1.117011023E1
8.032431542E0,-8.743331333E-1,9.574365395E0,4.673324253E0,1.068984989E1
8.042456542E0,-7.763342375E-1,9.185209805E0,4.412463590E0,1.021961883E1
8.052481542E0,-7.354602997E-1,9.056920139E0,4.315812624E0,1.005956972E1
8.062506542E0,-5.463854653E-1,9.031506971E0,4.385489507E0,1.005480847E1
8.072531542E0,-4.329464118E-1,9.124413380E0,4.252422959E0,1.007598448E1
8.082556542E0,-4.865893529E-1,9.337841429E0,4.255052744E0,1.027314585E1
8.092581542E0,-7.824824385E-1,9.638853752E0,4.238716501E0,1.055871668E1
8.102606542E0,-1.162112038E0,9.834141984E0,4.169345719E0,1.074450076E1
8.112630542E0,-1.453798783E0,9.849369303E0,4.027762116E0,1.073994759E1
8.122655542E0,-1.799394224E0,9.688790728E0,3.768261808E0,1.055036883E1
8.132680542E0,-2.021441654E0,9.126565155E0,3.377674527E0,9.939270753E0
8.142705542E0,-1.935528515E0,8.611554680E0,2.835799019E0,9.270755132E0
8.152730542E0,-2.091386340E0,8.202032652E0,1.664548222E0,8.626584332E0
8.162755542E0,-1.922111640E0,7.216614262E0,-1.718324480E0,7.663333060E0
8.172780542E0,-2.346734248E0,4.823385149E0,-8.453175827E0,1.001141286E1
8.182805542E0,-2.578985800E0,6.464085209E-1,-7.797431642E0,8.238261463E0
8.192829542E0,-1.430326889E-1,-6.920772048E0,-3.898901470E0,7.944745229E0
8.202854542E0,5.936230740E-1,-1.648880432E1,-2.013531979E1,2.603198340E1
8.212879542E0,4.923593853E-1,-1.650948359E1,-2.014715456E1,2.605212665E1
8.222904542E0,2.431754664E-1,-1.662680914E1,-2.002240070E1,2.602703299E1
8.232929542E0,-4.459992975E-2,-1.683476068E1,-1.974393524E1,2.594675578E1
8.242954542E0,-1.914419335E-1,-1.706060354E1,-1.937640733E1,2.581755226E1
8.252979542E0,-2.483745182E-1,-1.725961470E1,-1.904180159E1,2.570109331E1
8.263004542E0,5.884467679E0,-2.656301778E0,1.383541855E1,1.526766863E1
8.273028542E0,3.574099750E0,2.198857141E0,9.730432259E0,1.059671995E1
8.283053542E0,1.898523095E0,1.724384242E0,2.367607200E0,3.490480598E0
8.293078542E0,2.344335574E0,-6.201247603E0,-4.624368732E0,8.083079072E0
8.303103542E0,7.605011469E0,-1.396324921E1,-9.739111281E0,1.864561119E1
8.313128542E0,1.154431223E1,-2.346813682E1,-1.070464972E1,2.825976144E1
8.323153542E0,1.156036985E1,-2.344524848E1,-1.074003941E1,2.826075501E1
8.333178542E0,1.156475877E1,-2.342196019E1,-1.078599385E1,2.826074181E1
8.343202542E0,7.159958836E0,-9.130149499E0,-6.540701276E-1,1.162120683E1
8.353227542E0,3.588701125E0,-6.500619197E0,-1.743200874E0,7.627291459E0
8.363252542E0,2.049986445E0,-6.336040542E0,-1.990037574E0,6.950403134E0
8.373277542E0,3.958982488E0,-7.723802333E0,-8.060831165E-1,8.716675674E0
8.383302542E0,4.893273117E0,-8.997449863E0,-7.309402558E-1,1.026803289E1
8.393327542E0,4.135510221E0,-9.921761341E0,-1.344573379E0,1.083289760E1
8.403352542E0,3.850702871E0,-9.802796230E0,-2.737487444E0,1.088193751E1
8.413377542E0,3.209828155E0,-9.243064495E0,-2.560343414E0,1.011398025E1
8.423401542E0,2.721104715E0,-7.443530669E0,-2.199828948E0,8.224950278E0
8.433426542E0,2.077263706E0,-4.464534507E0,-1.995000106E0,5.312919941E0
8.443451542E0,8.776232153E-1,-1.952833203E0,-2.051826564E0,2.965429526E0
8.453476542E0,-6.599821012E-1,4.767451268E-1,-2.305225156E0,2.444775104E0
8.463501542E0,-1.592503216E0,3.101759623E0,-2.371759307E0,4.216897137E0
8.473526542E0,-1.966990774E0,5.811354679E0,-1.887775912E0,6.419080448E0
8.483551542E0,-2.549812286E0,7.547029309E0,-1.249241398E0,8.063485485E0
8.493576542E0,-2.171502842E0,9.152644907E0,-1.787842319E0,9.575109061E0
8.503600542E0,-1.590474671E0,1.048702922E1,-2.195568666E0,1.083180102E1
8.513625542E0,-1.322337587E0,1.125389740E1,-1.845251452E0,1.148058083E1
8.523650542E0,-1.203495122E0,1.166995252E1,-1.268014176E0,1.180017171E1
8.533675542E0,-1.362845343E0,1.181819113E1,-1.306033942E0,1.196798704E1
8.543700542E0,-1.027914784E0,1.169077446E1,-1.733755574E0,1.186325101E1
8.553725542E0,-1.096505109E0,1.157829157E1,-2.746969289E0,1.195010458E1
8.563750542E0,-1.392807792E0,1.118332385E1,-3.584432073E0,1.182602212E1
8.573775542E0,-2.507906461E0,1.035223804E1,-4.589700590E0,1.159843863E1
8.583799542E0,-4.288401754E0,9.492194474E0,-4.448483316E0,1.132612685E1
8.593824542E0,-4.869834553E0,9.184629761E0,-1.696537900E0,1.053332584E1
8.603849542E0,-4.183805299E0,9.270722995E0,1.440233681E0,1.027252669E1
8.613874542E0,-2.707139517E0,9.715381526E0,3.247952878E0,1.059558589E1
8.623899542E0,-7.989824040E-1,9.947491429E0,3.889186906E0,1.071058978E1
8.633924542E0,-2.009835662E-1,9.760172367E0,4.622449091E0,1.080131449E1
8.643949542E0,-4.170884706E-1,9.624866627E0,5.329589717E0,1.100983864E1
8.653973542E0,-2.398913777E-1,9.444574165E0,5.373961898E0,1.086908439E1
8.663998542E0,-4.012565495E-1,9.135360537E0,5.841684186E0,1.085085679E1
8.674023542E0,-7.370196059E-1,9.018000487E0,5.923952172E0,1.081483888E1
8.684048542E0,-1.164980682E0,9.173555135E0,5.335041661E0,1.067585890E1
8.694073542E0,-1.465965961E0,9.419260399E0,4.852152573E0,1.069649042E1
8.704098542E0,-1.670623187E0,9.504724472E0,4.527259344E0,1.065958941E1
8.714123542E0,-1.724462887E0,9.575474027E0,4.204938598E0,1.059929166E1
8.724148542E0,-1.723278241E0,9.608970972E0,3.965101307E0,1.053679455E1
8.734172542E0,-1.802648200E0,9.539376826E0,3.726682843E0,1.039891416E1
8.744197542E0,-1.884012790E0,9.406208829E0,3.432988018E0,1.018880147E1
8.754222542E0,-1.870273003E0,9.284886121E0,3.205788899E0,9.999205661E0
8.764247542E0,-1.811171540E0,9.252239361E0,3.027362283E0,9.901979496E0
8.774272542E0,-1.740433972E0,9.134233779E0,2.806024120E0,9.712729199E0
8.784297542E0,-1.660926603E0,9.000725473E0,2.553779038E0,9.502290439E0
8.794322542E0,-1.572483812E0,8.868898242E0,2.402476193E0,9.322121713E0
8.804347542E0,-1.684839376E0,8.556748728E0,2.094723785E0,8.969085809E0
8.814371542E0,-4.038539704E0,7.319522334E0,-4.944827725E0,9.712699489E0
8.824396542E0,-4.751116487E0,4.310904763E0,-8.000352244E0,1.025488390E1
8.834421542E0,-2.665321693E-1,6.222975272E-1,5.516458544E0,5.557842070E0
8.844446542E0,1.485369215E0,-5.042993120E0,1.340292632E0,5.425355809E0
8.854471542E0,1.881166658E0,-1.759167457E1,-2.693162742E1,3.222294769E1
8.864496542E0,1.470358390E-1,-4.421833344E1,-9.702731192E1,1.066282415E2
8.874521542E0,-1.821150398E-1,-4.447569981E1,-9.666329701E1,1.064044831E2
8.884545542E0,-1.116578454E-1,-4.472307913E1,-9.611406103E1,1.060098062E2
8.894570542E0,9.853260040E-2,-4.493138502E1,-9.562818080E1,1.056578820E2
8.904595542E0,2.742233044E-1,-4.508265015E1,-9.530337499E1,1.054289041E2
8.914620542E0,1.025763593E1,-4.478470176E0,1.736926870E1,2.066318672E1
8.924645542E0,7.920593299E0,-1.771226871E-1,1.052639385E1,1.317467791E1
8.934670542E0,2.384597746E0,-4.782557550E0,2.840047606E0,6.051861989E0
8.944695542E0,-3.442310234E0,-1.343625136E1,5.334976172E-1,1.388045280E1
8.954720542E0,-3.541133148E0,-1.732086311E1,-3.645792754E0,1.805114201E1
8.964744542E0,-3.485490460E0,-1.722183233E1,-3.802391129E0,1.797771762E1
8.974769542E0,-3.545148724E0,-1.715386780E1,-3.969927014E0,1.796061192E1
8.984794542E0,-3.647433775E0,-1.711687247E1,-4.107421659E0,1.797670740E1
8.994819542E0,-3.722151835E0,-1.709123594E1,-4.209745594E0,1.799129562E1
9.004844542E0,-3.756711219E0,-1.705494227E1,-4.312455153E0,1.798836303E1
9.014869542E0,3.610155728E0,-8.349555565E0,-2.991086741E0,9.575745527E0
9.024894542E0,3.716799294E0,-7.778496603E0,-3.771895561E-1,8.629129641E0
9.034919542E0,2.458105141E0,-8.148954552E0,-1.451535910E0,8.634506221E0
9.044943542E0,2.171449194E0,-8.256481340E0,-1.678960732E-1,8.538903022E0
9.054968542E0,1.583214037E0,-7.799849465E0,-3.355702445E-1,7.965979272E0
9.064993542E0,5.428005373E-1,-7.791375681E0,-1.804552492E0,8.016020030E0
9.075018542E0,1.987866211E-1,-6.731598249E0,-3.229221908E0,7.468721794E0
9.085043542E0,4.190027028E-1,-4.884578015E0,-3.642328863E0,6.107472897E0
9.095068542E0,1.514431778E-1,-3.013875972E0,-3.145219638E0,4.358760143E0
9.105093542E0,2.974366044E-1,-9.143080616E-1,-3.118737599E0,3.263579626E0
9.115118542E0,8.111592306E-1,1.854764287E0,-3.449490030E0,3.999638899E0
9.125142542E0,4.924223891E-1,4.418274845E0,-3.004463124E0,5.365671541E0
9.135167542E0,3.609340042E-2,6.826581005E0,-2.589977396E0,7.301472034E0
9.145192542E0,-2.729886648E-1,8.591696366E0,-2.008695163E0,8.827605877E0
9.155217542E0,-8.148308435E-1,1.038236055E1,-2.218421924E0,1.064794608E1
9.165242542E0,-1.482005166E0,1.160878831E1,-2.349563277E0,1.193653018E1
9.175267542E0,-1.588266031E0,1.193821342E1,-2.488917629E0,1.229789574E1
9.185292542E0,-1.934465052E0,1.193606281E1,-3.647474413E0,1.262995725E1
9.195317542E0,-2.361778403E0,1.158885164E1,-3.775367053E0,1.241502622E1
9.205341542E0,-3.067345836E0,1.108308386E1,-3.531048163E0,1.202961593E1
9.215366542E0,-4.056794711E0,1.042750340E1,-3.351413512E0,1.167999927E1
9.225391542E0,-4.913066234E0,9.749019388E0,-2.481988678E0,1.119561819E1
9.235416542E0,-5.363423461E0,9.213340759E0,-2.042337410E-1,1.066272341E1
9.245441542E0,-5.710188493E0,8.770946270E0,2.493277313E0,1.075881884E1
9.255466542E0,-4.828618407E0,8.697141545E0,3.379500320E0,1.050603870E1
9.265491542E0,-2.280193664E0,8.881175056E0,2.872473925E0,9.608624250E0
9.275516333E0,-1.159595104E0,8.973361089E0,3.055690581E0,9.550032197E0
9.285540333E0,-8.046778113E-1,9.101167189E0,3.369805344E0,9.738292389E0
9.295565333E0,-4.340225919E-1,9.327664350E0,3.513439858E0,9.976871127E0
9.305590333E0,-8.334051087E-2,9.622583874E0,4.027374153E0,1.043172127E1
9.315615333E0,1.418573986E-1,9.789525974E0,4.463109541E0,1.075984615E1
9.325640333E0,2.584845733E-1,9.917090585E0,4.393682041E0,1.084988211E1
9.335665333E0,2.966137549E-1,9.983885669E0,4.183584274E0,1.082905029E1
9.345690333E0,1.473305386E-1,9.903520367E0,4.200231004E0,1.075840892E1
9.355715333E0,-1.743559308E-2,9.813880212E0,4.074582818E0,1.062613636E1
9.365739333E0,-1.134596649E-1,9.736727371E0,3.860068941E0,1.047458186E1
9.375764333E0,-2.352007413E-1,9.668737702E0,3.723144400E0,1.036347492E1
9.385789333E0,-3.042483182E-1,9.679281986E0,3.649183262E0,1.034879729E1
9.395814333E0,-4.747355850E-1,9.655185610E0,3.651923559E0,1.033365999E1
9.405839333E0,-5.810040517E-1,9.616444298E0,3.625961629E0,1.029374394E1
9.415864333E0,-6.989026304E-1,9.564649662E0,3.559382893E0,1.022937899E1
9.425889333E0,-9.804557119E-1,9.484468548E0,3.398903136E0,1.012269626E1
9.435914333E0,-1.218517642E0,9.318428088E0,3.092331280E0,9.893452382E0
9.445938333E0,-1.480446883E0,9.049312327E0,2.676613251E0,9.552279051E0
9.455963333E0,-1.730340069E0,8.888869992E0,2.238368239E0,9.328257011E0
9.465988333E0,-3.319214357E0,8.407423704E0,-4.153054791E0,9.947352481E0
9.476013333E0,-5.336494110E0,7.017646378E0,-9.432052352E0,1.291081491E1
9.486038333E0,-3.104437063E0,3.928748290E0,3.683261419E0,6.216028257E0
9.496063333E0,-2.061730724E0,-1.681711262E0,4.669294059E0,5.374122566E0
9.506088333E0,4.253102113E0,-1.424553641E1,-1.123738954E1,1.863607010E1
9.516113333E0,2.363533883E0,-3.306536132E1,-4.825262690E1,5.854246676E1
9.526137333E0,2.062220136E0,-3.316051423E1,-4.818209544E1,5.852680392E1
9.536162333E0,1.957676159E0,-3.332767443E1,-4.782585032E1,5.832562334E1
9.546187333E0,1.967317049E0,-3.350990174E1,-4.741155404E1,5.809164576E1
9.556212333E0,1.954306409E0,-3.366054005E1,-4.711523586E1,5.793700648E1
9.566237333E0,1.109595943E1,-5.474220597E0,1.069201272E1,1.635256991E1
9.576262333E0,3.976397543E0,-1.044032049E0,6.895837766E-1,4.168604817E0
9.586287333E0,-8.782257709E-1,-3.815977719E0,-1.149064415E0,4.080847398E0
9.596311333E0,-1.219732986E0,-9.804026484E0,-1.602887871E0,1.000879280E1
9.606336333E0,2.046284281E0,-1.601304679E1,-4.995033088E0,1.689838165E1
9.616361333E0,2.106891109E0,-1.592965731E1,-5.148725397E0,1.687312494E1
9.626386333E0,2.172803848E0,-1.587738905E1,-5.231720191E0,1.685774172E1
9.636411333E0,2.248063068E0,-1.583335835E1,-5.292073982E0,1.684503105E1
9.646436333E0,2.318537804E0,-1.577724145E1,-5.389665180E0,1.683286832E1
9.656461333E0,2.401138642E0,-1.570171764E1,-5.537149501E0,1.682169517E1
9.666486333E0,3.692554107E0,-9.172329558E0,-5.541827273E-1,9.903216843E0
9.676510333E0,3.431464233E0,-8.303776544E0,-7.422604653E-1,9.015464618E0
9.686535333E0,2.441438968E0,-7.938424383E0,-1.568398654E0,8.452164236E0
9.696560333E0,1.621707866E0,-7.975558296E0,-2.672283973E0,8.566245862E0
9.706585333E0,1.486480333E0,-7.101690747E0,-3.072774975E0,7.879440418E0
9.716610333E0,1.542868395E0,-5.201552652E0,-2.608321280E0,6.019961194E0
9.726635333E0,1.448969275E0,-3.043144210E0,-2.199755273E0,4.024818245E0
9.736660333E0,5.887606756E-1,-1.107569649E0,-1.607080325E0,2.038640927E0
9.746685333E0,4.520613983E-1,1.310921776E0,-1.777165157E0,2.254149819E0
9.756709333E0,7.431562588E-1,3.326071095E0,-2.525610076E0,4.241902452E0
9.766734333E0,1.620713693E-1,5.021757787E0,-3.016114286E0,5.860141960E0
9.776759333E0,-7.506787017E-1,6.628908863E0,-3.146586717E0,7.376107320E0
9.786784333E0,-1.251161039E0,8.041433612E0,-2.455378000E0,8.500525843E0
9.796809333E0,-1.886659971E0,9.195093938E0,-1.890452768E0,9.575126633E0
9.806834333E0,-2.407995965E0,1.013783701E1,-1.877970132E0,1.058777387E1
9.816859333E0,-2.959037275E0,1.052853626E1,-2.097737732E0,1.113581973E1
9.826884333E0,-3.210068184E0,1.046515712E1,-2.503480704E0,1.122904569E1
9.836908333E0,-3.505531499E0,1.043091115E1,-2.782267760E0,1.135049217E1
9.846933333E0,-4.174107691E0,1.025909774E1,-2.699943641E0,1.140008584E1
9.856958333E0,-4.973051650E0,9.895489801E0,-2.124644279E0,1.127679362E1
9.866983333E0,-6.371565886E0,9.504669508E0,-9.310403808E-1,1.148052396E1
9.877008333E0,-7.653372036E0,9.228524224E0,4.400345528E-1,1.199722440E1
9.887033333E0,-6.582918758E0,9.486101675E0,1.176922889E0,1.160629535E1
9.897058333E0,-3.562679261E0,9.749881852E0,1.636827450E0,1.050866708E1
9.907083333E0,-1.435670806E0,9.630180577E0,2.418928942E0,1.003258421E1
9.917107333E0,-4.289105905E-1,9.518764222E0,2.974760438E0,9.981985587E0
9.927132333E0,2.041538534E-1,9.633338073E0,3.151225898E0,1.013770713E1
9.937157333E0,7.058369896E-1,9.834876394E0,3.340020213E0,1.041051077E1
9.947182333E0,1.055453342E0,9.961237063E0,3.591640520E0,1.064143351E1
9.957207333E0,1.126694722E0,1.003069029E1,3.782021184E0,1.077904787E1
9.967232333E0,1.043188661E0,1.008114708E1,4.009393088E0,1.089922025E1
9.977257333E0,9.197462645E-1,1.004924000E1,4.169744207E0,1.091878768E1
9.987281333E0,7.642933586E-1,9.988295639E0,4.185923452E0,1.085689409E1
9.997306333E0,4.800151457E-1,9.904834821E0,4.222565614E0,1.077804378E1
1.000733133E1,2.534713533E-1,9.847265475E0,4.168715974E0,1.069631142E1
1.001735633E1,1.755078871E-1,9.838544937E0,4.059893443E0,1.064474069E1
1.002738133E1,1.313932032E-1,9.821640637E0,3.952241818E0,1.058782812E1
1.003740633E1,1.354264116E-1,9.784647058E0,3.780250647E0,1.049037432E1
1.004743133E1,1.231266107E-1,9.713977609E0,3.542335628E0,1.034043823E1
1.005745633E1,1.018867826E-1,9.633901160E0,3.178387092E0,1.014517506E1
1.006748033E1,8.023439683E-2,9.583384141E0,2.808130872E0,9.986655503E0
1.007750533E1,2.063151671E-1,9.623404239E0,2.846318453E0,1.003762939E1
1.008753033E1,5.852747849E-1,9.401537488E0,3.099118728E0,9.916450504E0
1.009755533E1,1.449775460E-1,9.125568790E0,3.197630571E0,9.670670375E0
1.010758033E1,1.247958080E-1,9.044205369E0,2.593416728E0,9.409518323E0
1.011760533E1,3.974507065E-1,8.407282201E0,-2.818502955E0,8.876053176E0
1.012763033E1,-4.936214337E-1,5.862904317E0,-1.392863954E1,1.512032766E1
1.013765533E1,-1.547822595E0,3.415470344E0,-7.764398382E0,8.622474975E0
1.014767933E1,-2.986733782E0,-1.468264502E0,-2.666468332E0,4.264555392E0
1.015770433E1,-3.917518712E0,-1.429180192E1,-1.979100065E1,2.472420397E1
1.016772933E1,1.101697290E-1,-3.352233058E1,-4.350196532E1,5.491975757E1
1.017775433E1,-3.994762185E-1,-3.359185163E1,-4.356857680E1,5.501629724E1
1.018777933E1,-6.654553874E-1,-3.369610047E1,-4.347996576E1,5.501252076E1
1.019780433E1,-7.382893288E-1,-3.380672745E1,-4.328730234E1,5.492932219E1
1.020782933E1,-7.367113115E-1,-3.392358523E1,-4.305540645E1,5.481897849E1
1.021785433E1,6.956904917E0,-8.048533886E0,4.606504903E0,1.159298543E1
1.022787833E1,4.844607033E0,-8.303414601E-1,-6.305554914E0,7.994980114E0
1.023790333E1,6.933920681E-3,-4.791081621E0,-5.942515327E0,7.633347863E0
1.024792833E1,-2.363667053E0,-1.476955920E1,4.246394187E-2,1.495756010E1
1.025795333E1,3.449267543E0,-1.615060371E1,9.005019084E-1,1.653935762E1
1.026797833E1,3.441213296E0,-1.610076204E1,7.923351431E-1,1.648345480E1
1.027800367E1,3.421808141E0,-1.606150735E1,6.954540887E-1,1.643667988E1
1.028802867E1,3.451985914E0,-1.602092182E1,6.282847837E-1,1.640063671E1
1.029805267E1,3.492619092E0,-1.597017033E1,5.437477863E-1,1.635666195E1
1.030807767E1,3.253278230E0,-9.506537109E0,-5.891063923E-1,1.006504413E1
1.031810267E1,2.407270033E0,-1.003931610E1,-2.599368024E-1,1.032716728E1
1.032812767E1,1.703975120E0,-1.096840593E1,-4.148959109E-1,1.110772697E1
1.033815267E1,1.775412600E0,-1.088140404E1,-5.947726366E-1,1.104132230E1
1.034817767E1,1.854354982E0,-1.078889641E1,-8.001169100E-1,1.097629742E1
1.035820267E1,1.930105807E0,-1.069592100E1,-1.030363306E0,1.091740276E1
1.036822767E1,-1.375182383E0,-9.478097422E0,-3.064280433E0,1.005560898E1
1.037825167E1,-1.226791306E0,-8.084494262E0,-3.325629045E0,8.827449968E0
1.038827667E1,-1.291658270E0,-5.871346527E0,-3.550172944E0,6.981748997E0
1.039830167E1,-1.583593083E0,-3.322390857E0,-3.172955321E0,4.859392301E0
1.040832667E1,-1.592730965E0,-6.962887788E-1,-2.619781823E0,3.144020800E0
1.041835167E1,-7.449633408E-1,1.712101581E0,-1.632514544E0,2.480194737E0
1.042837667E1,-3.158945100E-1,3.667125151E0,-5.795701683E-1,3.726056601E0
1.043840167E1,8.835581392E-3,5.670480636E0,-2.025391448E-1,5.674103525E0
1.044842667E1,6.659503542E-1,7.883719588E0,-1.121554288E0,7.990895346E0
1.045845067E1,1.296030964E-1,9.137207088E0,-1.334572009E0,9.235065391E0
1.046847567E1,-2.408232777E-1,9.978762338E0,-1.197450270E0,1.005323733E1
1.047850067E1,1.944023788E-2,1.063758450E1,-1.197592723E0,1.070480314E1
1.048852567E1,-3.047144875E-2,1.116355792E1,-1.646650772E0,1.128438801E1
1.049855067E1,-1.435947526E-1,1.143126918E1,-2.515465157E0,1.170564391E1
1.050857567E1,-3.019759440E-1,1.152754125E1,-3.196804944E0,1.196640959E1
1.051860067E1,-4.806931669E-1,1.158184901E1,-3.650357090E0,1.215299961E1
1.052862567E1,-1.179115887E0,1.127332653E1,-4.025277342E0,1.202834415E1
1.053864967E1,-2.208475518E0,1.037119705E1,-3.453259145E0,1.115186491E1
1.054867467E1,-2.351370066E0,9.729561024E0,-3.164242677E-1,1.001466041E1
1.055869967E1,-2.607220834E0,9.453078355E0,2.558709995E0,1.013436173E1
1.056872467E1,-2.625689850E0,9.413503230E0,4.675936496E0,1.083386692E1
1.057874967E1,-2.335275167E0,9.553887277E0,5.064788032E0,1.106265565E1
1.058877467E1,-2.160719992E0,9.662528543E0,5.471129758E0,1.131222478E1
1.059879967E1,-2.011329479E0,9.756434827E0,5.966331621E0,1.161165707E1
1.060882467E1,-1.919279833E0,9.794308997E0,6.146994213E0,1.172167487E1
1.061884867E1,-1.988451956E0,9.783016854E0,6.086738656E0,1.169229436E1
1.062887367E1,-2.046805706E0,9.813194919E0,5.791074196E0,1.157690582E1
1.063889867E1,-2.042237569E0,9.701050000E0,5.258907405E0,1.122217503E1
1.064892367E1,-2.011337958E0,9.473208565E0,4.581077117E0,1.071323613E1
1.065894867E1,-1.900065005E0,9.326872053E0,4.111603295E0,1.036851344E1
1.066897367E1,-1.893659527E0,9.294446318E0,3.728800119E0,1.019198848E1
1.067899867E1,-1.879505903E0,9.351317507E0,3.297815595E0,1.009233716E1
1.068902367E1,-1.862039539E0,9.524330186E0,2.860746165E0,1.011750589E1
1.069904767E1,-1.983833532E0,9.708933801E0,2.269826843E0,1.016617455E1
1.070907267E1,-2.210738975E0,9.785327089E0,1.752610652E0,1.018389106E1
1.071909767E1,-2.474334380E0,9.719214960E0,1.358489752E0,1.012081837E1
1.072912267E1,-2.697536927E0,9.597235025E0,9.484479073E-1,1.001414894E1
1.073914767E1,-2.815241963E0,9.472474154E0,5.144381793E-1,9.895352472E0
1.074917267E1,-2.855433092E0,9.252191414E0,4.052003503E-2,9.682881079E0
1.075919767E1,-2.843112424E0,8.824851167E0,-8.224623370E-1,9.307939120E0
1.076922267E1,-2.855232825E0,7.926445777E0,-2.737402074E0,8.858570272E0
1.077924667E1,-3.174208087E0,6.424588437E0,-5.602665213E0,9.096196516E0
1.078927167E1,-2.312484913E0,3.099843491E0,-6.887646986E0,7.899132683E0
1.079929667E1,7.715655992E0,-6.447032974E0,-2.633808358E1,2.819202419E1
1.080932167E1,1.274375947E0,-1.007469877E1,-1.040295795E1,1.453771384E1
1.081934667E1,9.345772885E-1,-1.015423728E1,-1.034843968E1,1.452832314E1
1.082937167E1,6.220297247E-1,-1.026341649E1,-1.024348333E1,1.451391022E1
1.083939667E1,1.482605383E-1,-1.043013464E1,-1.013989991E1,1.454741420E1
1.084942067E1,-9.062570304E-2,-1.061186610E1,-9.907750243E0,1.451838249E1
1.085944567E1,3.477806926E-2,-1.073511956E1,-9.591084924E0,1.439558653E1
1.086947067E1,1.800996508E-1,-1.077992210E1,-9.429395378E0,1.432315096E1
1.087949567E1,1.129619265E1,-3.299216003E0,7.540064106E0,1.397645740E1
1.088952067E1,8.786754802E0,-2.382764937E0,6.795873767E-1,9.129428663E0
1.089954567E1,5.404575580E0,-4.287146357E0,-5.007325689E0,8.524222642E0
1.090957067E1,-3.063959713E0,-1.030255307E1,-1.102689445E1,1.539879379E1
1.091959567E1,-5.135253997E0,-1.669949938E1,-7.601119562E0,1.905311344E1
1.092961967E1,-5.108584262E0,-1.670693587E1,-7.575484200E0,1.904225040E1
1.093964467E1,-5.112198426E0,-1.668196592E1,-7.623758227E0,1.904059477E1
1.094966967E1,-5.120955800E0,-1.664602894E1,-7.696009347E0,1.904056269E1
1.095969467E1,-7.764739859E-1,-9.772762007E0,-5.587102264E-2,9.803719226E0
1.096971967E1,-3.462545693E0,-1.020667979E1,1.058705344E0,1.082988421E1
1.097974467E1,-3.369834288E0,-1.038186705E1,1.761712574E0,1.105633654E1
1.098976967E1,-3.452571512E0,-1.026913507E1,1.437041832E0,1.092888257E1
1.099979467E1,-3.504068818E0,-1.016140480E1,1.111227959E0,1.080589993E1
1.100981867E1,-3.524039983E0,-1.006677580E1,8.121384931E-1,1.069665376E1
1.101984367E1,-3.530363454E0,-9.988326044E0,5.451277292E-1,1.060788799E1
1.102986867E1,-3.535157879E0,-9.925178454E0,3.067462488E-1,1.054042702E1
1.103989367E1,-3.533824421E0,-9.871624975E0,8.859598830E-2,1.048545392E1
1.104991867E1,5.526570134E0,-8.581568404E0,-4.889518619E0,1.131784812E1
1.105994367E1,3.662283364E0,-6.054151538E0,-4.254746058E0,8.256387485E0
1.106996867E1,2.142193966E0,-2.680690514E0,-3.401211909E0,4.831494497E0
1.107999267E1,1.598067865E0,-7.100958091E-1,-2.511408359E0,3.060266149E0
1.109001767E1,1.668116339E0,8.892983508E-1,-1.528208549E0,2.430819830E0
1.110004267E1,2.397578273E0,3.340755208E0,-3.045558818E-1,4.123321624E0
1.111006767E1,1.470176103E0,6.110468411E0,5.439080000E-2,6.285077592E0
1.112009267E1,-7.360361043E-1,8.378096409E0,-4.306006551E-1,8.421381449E0
1.113011767E1,-2.122128369E0,9.800066750E0,-9.316251024E-1,1.007038542E1
1.114014267E1,-2.842945194E0,1.098384725E1,-9.750545657E-1,1.138762351E1
1.115016767E1,-2.855774862E0,1.185331887E1,-1.301941037E0,1.226179712E1
1.116019167E1,-2.847552508E0,1.278323665E1,-1.553443962E0,1.318836164E1
1.117021667E1,-2.637313530E0,1.265788054E1,-6.614896595E-1,1.294661851E1
1.118024167E1,-2.830564592E0,1.271431201E1,-8.198018539E-1,1.305135629E1
1.119026667E1,-3.411037570E0,1.230151964E1,-1.538080841E0,1.285800356E1
1.120029167E1,-3.948859203E0,1.133464979E1,-1.785090327E0,1.213483919E1
1.121031667E1,-4.898152033E0,9.978457114E0,-1.865307401E0,1.127124090E1
1.122034167E1,-6.785508993E0,8.707556605E0,-2.539208361E0,1.132749988E1
1.123036667E1,-8.409900584E0,8.274452173E0,-2.526866643E0,1.206557258E1
1.124039067E1,-6.131496753E0,8.714671497E0,-5.665405253E-1,1.067060073E1
1.125041567E1,-2.968905621E0,8.857959271E0,2.766932560E0,9.743395652E0
1.126044067E1,-2.137056603E0,8.601735451E0,5.600492388E0,1.048438738E1
1.127046567E1,-1.171308246E0,8.694157711E0,7.200442618E0,1.134930461E1
1.128049046E1,4.039010990E-1,9.231180614E0,7.900423914E0,1.215707735E1
1.129051546E1,8.551905186E-1,9.382302487E0,8.424987570E0,1.263880399E1
1.130054046E1,8.290562421E-1,9.298620061E0,8.703292231E0,1.276318788E1
1.131056546E1,4.427787973E-1,9.297554698E0,8.481603820E0,1.259278285E1
1.132058946E1,-8.323496863E-2,9.349193798E0,8.069251156E0,1.235018894E1
1.133061446E1,-6.563484952E-1,9.322189602E0,7.451154853E0,1.195214294E1
1.134063946E1,-1.152933225E0,9.301731364E0,6.641561068E0,1.148746251E1
1.135066446E1,-1.534989711E0,9.294530518E0,6.007205998E0,1.117278009E1
1.136068946E1,-1.749898129E0,9.260299748E0,5.482970370E0,1.090313070E1
1.137071446E1,-1.998564131E0,9.239043365E0,4.928716307E0,1.066050774E1
1.138073946E1,-2.220282800E0,9.179572504E0,4.272404941E0,1.036569588E1
1.139076446E1,-2.476513345E0,9.141172085E0,3.415607169E0,1.006779607E1
1.140078846E1,-2.648896864E0,9.002772583E0,1.912536532E0,9.577283789E0
1.141081346E1,-2.640110545E0,8.658519516E0,3.977568448E-2,9.052166923E0
1.142083846E1,-3.127816570E0,8.024969022E0,3.937830770E-1,8.621973638E0
1.143086346E1,-3.393885640E0,7.373741811E0,1.423692054E0,8.241203013E0
1.144088846E1,-3.329325070E0,6.488307885E0,-1.012358559E0,7.362568471E0
1.145091346E1,-4.167425201E0,4.664146755E0,-3.329972357E0,7.085930684E0
1.146093846E1,-5.428810535E0,1.881007175E0,1.484087652E-1,5.747364351E0
1.147096346E1,-1.996995030E0,7.875363332E-1,1.602901612E0,2.679084957E0
1.148098746E1,7.652906013E-1,-2.787181760E0,-3.261186297E0,4.357681486E0
1.149101246E1,6.948677884E0,-2.502881247E1,-7.267033751E1,7.717320475E1
1.150103746E1,6.311855873E0,-2.538036813E1,-7.238572311E1,7.696554763E1
1.151106246E1,5.895520670E0,-2.583818640E1,-7.177923587E1,7.651553923E1
1.152108746E1,5.802908376E0,-2.607142248E1,-7.141673189E1,7.624790102E1
1.153111246E1,5.950931225E0,-2.609523702E1,-7.123049573E1,7.609309101E1
1.154113746E1,8.185283303E-1,-4.498907365E0,7.787881969E0,9.031127375E0
1.155116146E1,6.605490180E0,-8.256525779E0,8.788317178E0,1.374908132E1
1.156118646E1,3.482287355E0,-8.074330047E0,4.036912716E0,9.675628931E0
1.157121146E1,-5.079014307E-1,-8.015329303E0,-4.580354401E0,9.245707876E0
1.158123646E1,-2.954713552E0,-1.143052775E1,-1.022175508E1,1.561638799E1
1.159126146E1,1.821956729E0,-1.397119675E1,-1.049309629E1,1.756755346E1
1.160128646E1,1.758979585E0,-1.396886371E1,-1.056368739E1,1.760155259E1
1.161131146E1,1.692233619E0,-1.394545496E1,-1.068721216E1,1.765094537E1
1.162133646E1,7.310924588E0,-9.425940843E0,1.632532962E0,1.204006408E1
1.163136046E1,7.588928702E0,-8.581669561E0,1.932162419E0,1.161766512E1
1.164138546E1,8.094513466E0,-7.648110711E0,5.523735988E-1,1.114988172E1
1.165141046E1,7.838121246E0,-6.703743283E0,-2.839061473E0,1.069750385E1
1.166143546E1,6.083119229E0,-7.360757484E0,-6.738107954E0,1.168705220E1
1.167146046E1,4.502074217E0,-9.698222871E0,-8.043336296E0,1.337981532E1
1.168148546E1,3.007696635E0,-1.111248834E1,-6.373040553E0,1.315862006E1
1.169151046E1,3.146841071E0,-1.101343884E1,-6.541160867E0,1.319034607E1
1.170153546E1,3.315344962E0,-1.091195223E1,-6.695730844E0,1.322478829E1
1.171155946E1,1.215366285E0,-8.374811443E0,-3.923317981E0,9.327754601E0
1.172158446E1,1.998814538E0,-5.690638912E0,-2.346647709E0,6.471892015E0
1.173160946E1,2.258855128E0,-2.083611444E0,-2.945346605E0,4.256633618E0
1.174163446E1,1.738628936E0,1.125000783E0,-3.386183395E0,3.969218478E0
1.175165946E1,1.497269907E0,4.064114841E0,-2.610096495E0,5.056822157E0
1.176168446E1,1.572503985E0,6.259409273E0,-1.046711170E0,6.538239633E0
1.177170946E1,1.410818824E0,7.523108350E0,-6.302359264E-2,7.654511152E0
1.178173346E1,8.877049845E-1,8.375295593E0,1.060813924E-1,8.422876567E0
1.179175846E1,8.108392417E-2,8.925501044E0,4.957117037E-1,8.939623794E0
1.180178346E1,-9.739420599E-1,9.491845980E0,7.195302916E-1,9.568773541E0
1.181180846E1,-1.747260596E0,9.935846114E0,3.692481601E-1,1.009506324E1
1.182183346E1,-2.012345579E0,1.026286451E1,-1.298409319E-1,1.045910041E1
1.183185846E1,-2.203119761E0,1.044728570E1,-1.475231459E0,1.077848890E1
1.184188346E1,-2.677764568E0,1.098605282E1,-6.316312037E0,1.295220358E1
1.185190846E1,-3.287301716E0,1.117631420E1,-1.004730691E1,1.538391133E1
1.186193246E1,-3.194460796E0,1.038594606E1,-6.944912277E0,1.289590098E1
1.187195746E1,-3.748650540E0,9.575572845E0,-2.273686444E0,1.053155384E1
1.188198246E1,-3.811516002E0,9.161727387E0,2.579992690E0,1.025286620E1
1.189200746E1,-3.887524250E0,9.195002137E0,4.971817303E0,1.115257264E1
1.190203246E1,-3.395645360E0,9.689415795E0,6.563942789E0,1.218607939E1
1.191205746E1,-1.845397486E0,1.005832072E1,8.226922495E0,1.312469281E1
1.192208246E1,-9.309289183E-1,1.003485819E1,8.389912462E0,1.311318568E1
1.193210746E1,-1.078438382E0,9.646190838E0,7.600113841E0,1.232776368E1
1.194213146E1,-1.616807753E0,8.867625303E0,6.862367134E0,1.132876553E1
1.195215646E1,-1.927952423E0,8.442458466E0,6.077131680E0,1.057939672E1
1.196218146E1,-1.921774109E0,8.270591841E0,5.574296862E0,1.015719896E1
1.197220646E1,-1.735972254E0,8.262316861E0,5.451850319E0,1.004998266E1
1.198223146E1,-1.564628955E0,8.423443905E0,5.536802176E0,1.020091414E1
1.199225646E1,-1.333668906E0,8.596229128E0,5.308173705E0,1.019070832E1
1.200228146E1,-1.295793859E0,8.993484866E0,4.707815224E0,1.023354171E1
1.201230546E1,-1.351874066E0,9.451817111E0,4.045787913E0,1.036980280E1
1.202233046E1,-1.528672817E0,9.735976004E0,3.449024884E0,1.044135250E1
1.203235546E1,-1.913904195E0,9.838714507E0,2.907503133E0,1.043632631E1
1.204238046E1,-2.283417527E0,9.836513615E0,2.414057042E0,1.038261369E1
1.205240546E1,-2.557241174E0,9.795951480E0,2.028283335E0,1.032540949E1
1.206243046E1,-2.771035843E0,9.724069319E0,1.595517017E0,1.023630003E1
1.207245546E1,-2.641311271E0,9.822874399E0,2.113524337E-1,1.017398922E1
1.208248046E1,-1.230905845E0,9.289060448E0,-9.505448357E0,1.334748372E1
1.209250446E1,8.187774217E-1,6.163666964E0,-3.383324107E1,3.439984576E1
1.210252946E1,7.867522216E-1,5.985123988E0,-3.331242489E1,3.385496035E1
1.211255446E1,-3.254489773E0,-7.817978758E-1,-6.301208094E-1,3.405871964E0
1.212257946E1,-2.114863349E0,2.426682204E0,9.834496325E0,1.034788633E1
1.213260446E1,-3.129638270E0,4.434665176E0,9.745710449E0,1.115525719E1
1.214262946E1,-3.065165994E0,2.184201095E0,6.528776464E0,7.535973667E0
1.215265446E1,6.549393162E0,-8.985525051E0,-4.069381896E1,4.218555573E1
1.216267846E1,2.199043550E1,-2.558154509E1,-1.269850582E1,3.604506558E1
1.217270346E1,2.168014014E1,-2.571223972E1,-1.272680050E1,3.595996661E1
1.218272846E1,2.152020475E1,-2.574711251E1,-1.282362454E1,3.592322872E1
1.219275346E1,2.154247329E1,-2.576404605E1,-1.276230713E1,3.592688001E1
1.220277846E1,2.484843289E0,-4.306164426E0,2.678175919E0,5.647134183E0
1.221280346E1,2.417320227E0,-9.695268273E-1,-5.910774887E0,6.459154674E0
1.222282846E1,6.655903704E0,-4.546494344E0,-1.127939828E1,1.386349488E1
1.223285246E1,9.552175212E0,-1.198527766E1,-2.452322245E-1,1.532811374E1
1.224287746E1,6.044738106E0,-1.558465638E1,3.647547503E0,1.710920735E1
1.225290246E1,5.998533407E0,-1.557548561E1,3.579869490E0,1.707025544E1
1.226292746E1,5.966294784E0,-1.555558403E1,3.503013688E0,1.702480463E1
1.227295246E1,5.976289430E0,-1.551870915E1,3.434813811E0,1.698070419E1
1.228297721E1,3.449273975E0,-1.003373318E1,1.124214917E0,1.066944946E1
1.229300221E1,3.635737882E0,-9.961480308E0,1.480352158E0,1.070705946E1
1.230302721E1,3.665907176E0,-1.025922755E1,4.930313766E-1,1.090567307E1
1.231305121E1,2.776329620E0,-1.073151183E1,-2.613959458E0,1.138886019E1
1.232307621E1,2.855760536E0,-1.063402705E1,-2.780319468E0,1.135641123E1
1.233310121E1,2.950633365E0,-1.053474367E1,-2.946761338E0,1.133006901E1
1.234312621E1,3.054552128E0,-1.043212270E1,-3.129118161E0,1.131153628E1
1.235315121E1,3.160919412E0,-1.032935788E1,-3.330687179E0,1.130400473E1
1.236317621E1,3.275970982E0,-1.022663517E1,-3.546591232E0,1.130903895E1
1.237320121E1,2.590891900E0,-9.471111753E0,-4.206251882E0,1.068209874E1
1.238322521E1,2.795359676E0,-8.649445807E0,-4.113488145E0,9.977361034E0
1.239325021E1,3.904028309E0,-7.369561052E0,-2.633596455E0,8.745724522E0
1.240327521E1,4.795221742E0,-4.515526321E0,-1.434859943E0,6.741138818E0
1.241330021E1,4.483537374E0,-1.288684230E0,-1.271314491E0,4.835189237E0
1.242332521E1,2.909674788E0,2.029315953E0,-8.385527050E-1,3.645202498E0
1.243335021E1,1.214210583E0,4.958590316E0,-6.241926098E-1,5.143106228E0
1.244337521E1,3.024615553E-1,7.240290223E0,-5.372877093E-1,7.266495964E0
1.245340021E1,-2.418206665E-1,8.913529454E0,-4.277553269E-1,8.927063302E0
1.246342421E1,-1.018612449E0,9.881423739E0,8.886364460E-2,9.934183569E0
1.247344921E1,-1.738384522E0,1.049551587E1,4.439358516E-1,1.064776564E1
1.248347421E1,-2.320171370E0,1.066202820E1,1.157849271E0,1.097281438E1
1.249349921E1,-2.691746137E0,1.066366191E1,1.273865047E0,1.107167172E1
1.250352421E1,-3.242234009E0,1.039659267E1,8.859420490E-1,1.092639528E1
1.251354921E1,-3.597519895E0,1.023221107E1,-4.522236586E-3,1.084621193E1
1.252357421E1,-3.877835999E0,1.008677444E1,-8.805596870E-1,1.084232522E1
1.253359821E1,-4.225396543E0,1.001218035E1,-9.861750197E-1,1.091193257E1
1.254362321E1,-4.843826137E0,9.766054081E0,-6.950912690E-1,1.092344341E1
1.255364821E1,-5.991121477E0,9.415179042E0,-3.642230630E-2,1.115976969E1
1.256367321E1,-7.037098310E0,9.093457636E0,-1.434789777E-1,1.149923087E1
1.257369821E1,-7.625406557E0,8.735307491E0,-5.112068617E-1,1.160662546E1
1.258372321E1,-7.954603629E0,8.349240400E0,-1.197695707E0,1.159396434E1
1.259374821E1,-7.946570724E0,8.097811296E0,-2.705090361E0,1.166362070E1
1.260377321E1,-7.190276649E0,8.056346936E0,-4.661473993E0,1.176155364E1
1.261379721E1,-6.113930547E0,7.996501853E0,-3.412700518E0,1.062876820E1
1.262382221E1,-4.490689395E0,8.142771122E0,-4.431300688E-1,9.309531516E0
1.263384721E1,-3.237100154E0,8.417261644E0,1.285298838E0,9.109396472E0
1.264387221E1,-2.342699084E0,8.745144262E0,1.897761787E0,9.250258751E0
1.265389721E1,-1.765977533E0,8.922595562E0,2.372052984E0,9.399894870E0
1.266392221E1,-1.387859147E0,9.008664238E0,3.104010217E0,9.628970027E0
1.267394721E1,-1.060625278E0,9.125737190E0,3.851258942E0,9.961736830E0
1.268397221E1,-6.788209529E-1,9.190431953E0,4.512634288E0,1.026102849E1
1.269399621E1,-1.508312666E-1,9.351575369E0,5.506583766E0,1.085344078E1
1.270402121E1,4.937753617E-1,9.555721548E0,6.509298220E0,1.157266571E1
1.271404621E1,1.035074261E0,9.724546452E0,7.043538433E0,1.205195487E1
1.272407121E1,1.321934422E0,9.854070464E0,6.785056418E0,1.203691015E1
1.273409621E1,3.980919487E0,1.057287570E1,4.098933840E0,1.201809799E1
1.274412121E1,1.254621860E0,1.006822474E1,7.544446009E0,1.264365022E1
1.275414621E1,2.060174049E0,1.020840822E1,4.903725307E0,1.151097031E1
1.276417121E1,1.299185537E0,1.005069946E1,5.260486738E0,1.141828198E1
1.277419521E1,9.535535498E-1,9.817627108E0,4.726922463E0,1.093795513E1
1.278422021E1,9.697482175E-1,9.556661196E0,4.399924821E0,1.056548736E1
1.279424521E1,1.201478636E0,9.166817388E0,4.270554298E0,1.018389542E1
1.280427021E1,4.666511516E-1,8.588544132E0,4.116361467E0,9.535475097E0
1.281429521E1,9.619429886E-2,8.192606356E0,3.785645288E0,9.025472979E0
1.282432021E1,-1.269933671E0,2.188340923E0,-8.803905855E0,9.160257957E0
1.283434521E1,-4.258883109E-1,-2.454198967E1,-1.111837952E2,1.138609984E2
1.284436921E1,-5.883683275E-1,-2.457228526E1,-1.111603315E2,1.138453455E2
1.285439421E1,-7.953749643E-1,-2.462133405E1,-1.111155278E2,1.138134581E2
1.286441921E1,-9.421175654E-1,-2.471160804E1,-1.109576811E2,1.136800692E2
1.287444421E1,-1.137066220E0,-2.483001650E1,-1.107726284E2,1.135270798E2
1.288446921E1,-1.340103913E0,-2.495578543E1,-1.105969219E2,1.133854763E2
1.289449421E1,6.961877389E0,-6.247270453E0,1.011296997E1,1.377564106E1
1.290451921E1,-4.198047946E-1,-1.248943044E0,7.511019816E0,7.625713965E0
1.291454421E1,-7.133968547E0,1.344315224E0,2.584983873E-1,7.264125004E0
1.292456821E1,-9.216663147E0,-4.244266970E0,-1.576772569E1,1.875051613E1
1.293459321E1,-4.115113963E-1,-1.303624334E1,-1.308488749E1,1.847504432E1
1.294461821E1,-4.162616743E-1,-1.299323239E1,-1.318518946E1,1.851611684E1
1.295464321E1,-4.133053221E-1,-1.296960613E1,-1.323832545E1,1.853738830E1
1.296466821E1,-4.063842653E-1,-1.293778090E1,-1.330957026E1,1.856598997E1
1.297469321E1,-3.901602884E-1,-1.288813336E1,-1.342077495E1,1.861110977E1
1.298471821E1,5.246496690E0,-8.611561112E0,-3.403807196E0,1.064286689E1
1.299474221E1,3.701415562E0,-7.349262443E0,-1.461944539E0,8.357596392E0
1.300476721E1,1.723697925E0,-7.083585429E0,-9.162309185E-1,7.347638815E0
1.301479221E1,3.697559908E-2,-7.387724258E0,-1.204057478E0,7.485291665E0
1.302481721E1,-7.892608233E-1,-7.978891793E0,-1.650389774E0,8.185928982E0
1.303484221E1,-3.679477394E-1,-8.164806354E0,-1.441130497E0,8.299174986E0
1.304486721E1,-9.115293185E-1,-7.783873118E0,-1.555280134E0,7.989897541E0
1.305489221E1,-9.240724732E-1,-7.321938404E0,-1.661164731E0,7.564665240E0
1.306491721E1,7.811587751E-2,-5.727782764E0,-8.246455412E-1,5.787368811E0
1.307494121E1,6.509597012E-1,-3.747006887E0,1.834566835E-1,3.807553742E0
1.308496621E1,6.521534103E-1,-1.640649190E0,5.011307935E-1,1.835256360E0
1.309499121E1,1.049676074E0,1.391402852E0,2.812336774E-1,1.765478445E0
1.310501621E1,8.056938381E-1,4.305860370E0,-2.078730480E-1,4.385520185E0
1.311504121E1,7.773174468E-1,6.789231915E0,-1.064764960E0,6.916040546E0
1.312506621E1,8.385788713E-1,8.668204259E0,-1.461640337E0,8.830479720E0
1.313509121E1,7.178623733E-1,1.012339906E1,-1.274453276E0,1.022852708E1
1.314511521E1,5.331707579E-1,1.124966051E1,-9.661845589E-1,1.130365628E1
1.315514021E1,1.571221398E-1,1.165612035E1,-7.264907440E-1,1.167979528E1
1.316516521E1,-3.392900969E-1,1.150509378E1,-3.229347038E-1,1.151462494E1
1.317519021E1,-5.785774572E-1,1.144221634E1,-3.455580197E-2,1.145688704E1
1.318521521E1,-8.698790167E-1,1.127099349E1,2.117896593E-1,1.130649542E1
1.319524021E1,-1.266734075E0,1.102160974E1,3.414890885E-1,1.109941941E1
1.320526521E1,-1.601199195E0,1.063567480E1,4.980014368E-1,1.076705265E1
1.321529021E1,-2.017380178E0,1.030110413E1,1.016352500E0,1.054587794E1
1.322531421E1,-2.563457934E0,1.004689526E1,1.372439601E0,1.045920702E1
1.323533921E1,-3.283080611E0,9.896565689E0,1.331584082E0,1.051160059E1
1.324536421E1,-4.491016547E0,9.841139932E0,5.274750582E-1,1.083030446E1
1.325538921E1,-5.750211514E0,1.046536762E1,-7.402162203E0,1.404922977E1
1.326541421E1,-4.196352254E0,1.109925258E1,-9.263139156E0,1.505352208E1
1.327544004E1,-1.235325463E0,1.058297501E1,-3.303086567E0,1.115507821E1
1.328546504E1,-3.555746656E-2,1.003401151E1,1.595233574E0,1.016008964E1
1.329548904E1,3.202376025E-1,9.985764964E0,4.876978096E0,1.111768723E1
1.330551404E1,7.444066858E-1,1.016515637E1,5.883528031E0,1.176862131E1
1.331553904E1,1.081823773E0,1.037554621E1,5.851849571E0,1.196103863E1
1.332556404E1,1.214546944E0,1.052302468E1,5.386761453E0,1.188387023E1
1.333558904E1,1.168776548E0,1.050436738E1,4.975861237E0,1.168190771E1
1.334561404E1,1.090244860E0,1.039048116E1,4.501170237E0,1.137590727E1
1.335563904E1,1.972406465E0,1.036946627E1,2.974987310E0,1.096662061E1
1.336566404E1,3.332667046E0,1.043454344E1,1.619857368E0,1.107295373E1
1.337568804E1,1.995690224E0,1.018442996E1,2.794903885E0,1.074787797E1
1.338571304E1,1.857622406E0,9.923978605E0,2.567170331E0,1.041760413E1
1.339573804E1,1.452549086E0,9.529828323E0,2.493123823E0,9.957067496E0
1.340576304E1,1.217416319E0,8.899035376E0,1.863925997E0,9.173284758E0
1.341578804E1,6.744059397E-1,8.526426821E0,1.068739167E0,8.619569660E0
1.342581304E1,8.933657471E-2,8.500074590E0,1.667646077E0,8.662580014E0
1.343583804E1,-2.400208204E-1,8.569657041E0,2.682714528E0,8.982961039E0
1.344586204E1,-3.112271894E-1,8.591002886E0,3.128349252E0,9.148156207E0
1.345588704E1,-3.742338251E-1,8.435398538E0,3.542747272E0,9.156803901E0
1.346591204E1,-6.026797532E-1,8.002579449E0,2.973710571E0,8.558472719E0
1.347593704E1,-9.537274314E-1,6.683257563E0,-1.609242625E0,6.940114516E0
1.348596204E1,-1.324836980E0,4.337178057E-1,-2.116379123E1,2.120965260E1
1.349598704E1,-5.109433277E0,-2.519043653E1,-9.391476886E1,9.736862026E1
1.350601204E1,-5.227942305E0,-2.535430358E1,-9.358223536E1,9.709689422E1
1.351603704E1,-5.616685667E0,-2.543191016E1,-9.347307487E1,9.703373093E1
1.352606104E1,-6.093324375E0,-2.550911914E1,-9.342217134E1,9.703373568E1
1.353608604E1,-6.505558341E0,-2.560644020E1,-9.336313786E1,9.702931299E1
1.354611104E1,-6.846192566E0,-2.569139790E1,-9.333562320E1,9.704873434E1
1.355613604E1,-8.554213375E-1,-5.340857887E0,1.139021003E1,1.260925823E1
1.356616104E1,-1.907859198E0,-6.336884880E-1,6.960426110E0,7.244930604E0
1.357618604E1,-2.538803734E0,7.054314852E-1,1.269437827E0,2.924829974E0
1.358621104E1,-6.690308136E-1,-6.193040451E0,-1.190527021E1,1.343639873E1
1.359623504E1,7.675804294E0,-1.823713818E1,-2.810116645E1,3.436839735E1
1.360626004E1,7.579198351E0,-1.824994124E1,-2.812335546E1,3.437190314E1
1.361628504E1,7.456063006E0,-1.827610402E1,-2.813274609E1,3.436655724E1
1.362631004E1,7.338007137E0,-1.827217937E1,-2.821312893E1,3.440493470E1
1.363633504E1,5.312853817E0,-9.658867017E0,-1.912270776E0,1.118824862E1
1.364636004E1,2.561199447E0,-5.848311421E0,-8.416990918E0,1.056447941E1
1.365638504E1,5.951120675E-1,-6.893850882E0,-6.292765299E0,9.352979924E0
1.366640904E1,6.418254733E-2,-6.872012701E0,-9.650279796E-1,6.939737528E0
1.367643404E1,-1.330946443E0,-7.730874540E0,-3.799067572E-1,7.853799637E0
1.368645904E1,-2.049326587E0,-8.675630808E0,-2.194840980E0,9.180611979E0
1.369648404E1,-8.183993992E-1,-9.431354195E0,-3.760009925E0,1.018616190E1
1.370650904E1,9.791469589E-1,-9.067235797E0,-4.343904694E0,1.010163362E1
1.371653404E1,1.317896919E0,-6.861797615E0,-4.035754675E0,8.068979775E0
1.372655904E1,1.615413192E0,-4.595591075E0,-3.039794340E0,5.741895745E0
1.373658304E1,2.298712820E0,-2.685033826E0,-1.476832281E0,3.830733723E0
1.374660804E1,2.956532328E0,6.609400213E-2,9.104582548E-2,2.958672197E0
1.375663304E1,3.005047846E0,2.859217703E0,3.235849142E-1,4.160546313E0
1.376665804E1,2.961626422E0,5.599645126E0,4.837840050E-3,6.334609697E0
1.377668304E1,2.683392513E0,8.032853408E0,-2.097432800E-1,8.471795648E0
1.378670804E1,2.184012960E0,9.630246651E0,-8.607088284E-1,9.912233999E0
1.379673304E1,1.541612121E0,1.026281540E1,-6.991468978E-1,1.040147846E1
1.380675804E1,9.836934614E-1,1.069657121E1,-1.164260012E0,1.080461891E1
1.381678204E1,6.254962465E-1,1.112202865E1,-9.747576734E-1,1.118216971E1
1.382680704E1,8.383284643E-2,1.114491699E1,-4.605161067E-1,1.115474239E1
1.383683204E1,-6.462275496E-1,1.110231184E1,-1.287568581E-1,1.112184862E1
1.384685704E1,-3.049090536E-1,1.132527553E1,-6.787798762E-2,1.132958264E1
1.385688204E1,-7.820414123E-1,1.135435958E1,2.300645471E-2,1.138128286E1
1.386690704E1,-1.146625248E0,1.124994117E1,1.164567284E-1,1.130882346E1
1.387693204E1,-1.236983003E0,1.111464596E1,9.089854874E-2,1.118363735E1
1.388695604E1,-1.399729579E0,1.095546721E1,9.790234365E-2,1.104495765E1
1.389698104E1,-1.091784651E0,1.085000683E1,-7.055104226E-3,1.090480131E1
1.390700604E1,-2.224782671E0,1.064149979E1,-2.721353806E0,1.120700416E1
1.391703104E1,-3.822666934E0,1.041748244E1,-7.982912339E0,1.366980659E1
1.392705604E1,-2.989576698E0,9.929339333E0,-3.478917897E0,1.093765140E1
1.393708104E1,-2.450065366E0,9.540735719E0,-6.194994883E-1,9.869763826E0
1.394710604E1,-2.143370572E0,9.396832818E0,2.162410568E0,9.877779300E0
1.395713104E1,-2.380472536E0,9.332697049E0,4.564762508E0,1.065846802E1
1.396715504E1,-3.207515289E0,9.214395012E0,5.526618665E0,1.121323966E1
1.397718004E1,-4.252065694E0,9.078136176E0,6.371295744E0,1.187796399E1
1.398720504E1,-4.358982032E0,9.109823408E0,6.862363626E0,1.220989932E1
1.399723004E1,-2.675649630E0,9.287964680E0,6.531737494E0,1.166571830E1
1.400725504E1,-1.049574698E0,9.464041885E0,5.755041314E0,1.112610428E1
1.401728004E1,-3.961152024E-1,9.598326700E0,5.317342139E0,1.097993215E1
1.402730404E1,-2.264955528E-2,9.670078468E0,4.944189209E0,1.086075216E1
1.403732904E1,1.307362502E-1,9.635689824E0,4.531572542E0,1.064888539E1
1.404735404E1,1.064523616E-1,9.608807834E0,4.134750375E0,1.046119882E1
1.405737904E1,5.713058598E-2,9.596475472E0,3.779247557E0,1.031398650E1
1.406740404E1,6.455203654E-2,9.548624198E0,3.570862147E0,1.019467741E1
1.407742904E1,1.006996516E-1,9.497839960E0,3.282241243E0,1.004948814E1
1.408745404E1,1.337902510E-1,9.407925571E0,3.122660203E0,9.913524607E0
1.409747904E1,1.052911046E-1,9.250832521E0,2.903678176E0,9.696408382E0
1.410750304E1,5.249573568E-2,9.069796293E0,2.786249714E0,9.488263701E0
1.411752804E1,2.233349500E-2,8.884448912E0,2.807183915E0,9.317414491E0
1.412755304E1,-6.602034548E-2,8.717602707E0,2.550487640E0,9.083278199E0
1.413757804E1,-2.044593704E-1,8.371991331E0,1.376099811E0,8.486795224E0
1.414760304E1,-3.565982024E-2,7.044585085E0,-3.960850966E0,8.081818546E0
1.415762804E1,1.663065807E0,3.081831728E0,-1.743532587E1,1.778353347E1
1.416765304E1,-2.470251854E0,-2.548456083E1,-7.876821628E1,8.282509813E1
1.417767704E1,-2.612815743E0,-2.551734734E1,-7.869055590E1,8.276572605E1
1.418770204E1,-2.900829998E0,-2.541266581E1,-7.891535093E1,8.295692262E1
1.419772704E1,-3.201332443E0,-2.534711852E1,-7.908643579E1,8.311070492E1
1.420775204E1,-3.452062805E0,-2.534892414E1,-7.911792655E1,8.315125371E1
1.421777704E1,-7.362939665E-1,-3.915770980E0,6.716482027E0,7.809386787E0
1.422780204E1,1.007148544E-1,2.239277773E0,4.386269234E0,4.925836601E0
1.423782704E1,-1.133200626E0,2.663060575E0,3.044745178E0,4.200774748E0
1.424785104E1,-5.963081739E0,-2.090459118E0,-2.166350832E1,2.256625701E1
1.425787604E1,-6.357056020E0,-1.546239578E1,-2.946450793E1,3.387705820E1
1.426790104E1,-6.328586512E0,-1.540276822E1,-2.958511961E1,3.394960351E1
1.427792592E1,-6.349837632E0,-1.535066719E1,-2.970486591E1,3.403443080E1
1.428795092E1,-6.413387511E0,-1.531788769E1,-2.979495513E1,3.411024149E1
1.429797592E1,-6.467663705E0,-1.528900830E1,-2.987673663E1,3.417899706E1
1.430800092E1,3.452619313E-1,-8.817512911E0,-5.942341080E0,1.063856932E1
1.431802592E1,6.670251455E-1,-8.352772703E0,-6.264683461E-1,8.402749369E0
1.432804992E1,7.487179841E-1,-8.503623850E0,3.467118216E-1,8.543559345E0
1.433807492E1,-1.079740995E-1,-8.842202779E0,-1.077617579E0,8.908280869E0
1.434809992E1,-1.209802002E0,-9.084881524E0,-3.350975848E0,9.758469774E0
1.435812492E1,-2.378358329E0,-9.615240941E0,-5.043112403E0,1.111496421E1
1.436814992E1,-2.309969587E0,-9.538457059E0,-5.319682195E0,1.116320479E1
1.437817492E1,-2.231678001E0,-9.469568673E0,-5.598325410E0,1.122472115E1
1.438819992E1,-2.150944325E0,-9.409760427E0,-5.876617792E0,1.130065438E1
1.439822392E1,-2.075410724E0,-9.361018038E0,-6.143408700E0,1.138760110E1
1.440824892E1,6.829090337E-1,-7.628579257E0,-5.004000378E0,9.148858180E0
1.441827392E1,1.576215797E0,-4.540161225E0,-4.259391378E0,6.421832690E0
1.442829892E1,2.408246225E0,-1.621644570E0,-2.577981248E0,3.882701161E0
1.443832392E1,3.513931609E0,1.080144453E0,-6.696371698E-1,3.736688551E0
1.444834892E1,4.223788851E0,3.093632578E0,6.541689456E-1,5.276257367E0
1.445837392E1,3.902677602E0,4.944845266E0,8.077998590E-1,6.350978490E0
1.446839792E1,3.178543213E0,6.940387702E0,-2.874958992E-1,7.639029539E0
1.447842292E1,2.329393891E0,8.288066829E0,-1.121770781E0,8.681963911E0
1.448844792E1,1.744061292E0,9.261121867E0,-1.384124823E0,9.525015987E0
1.449847292E1,1.377860408E0,1.012214776E1,-1.481559316E0,1.032237340E1
1.450849792E1,1.200145837E0,1.068161637E1,-1.573194541E0,1.086334292E1
1.451852292E1,1.173693033E0,1.108678865E1,-1.650203540E0,1.127020895E1
1.452854792E1,9.027969405E-1,1.117498572E1,-1.387809738E0,1.129696260E1
1.453857292E1,1.794716598E-1,1.093758642E1,-1.091634232E0,1.099339220E1
1.454859692E1,-7.291077384E-1,1.086233626E1,-1.341968737E0,1.096917624E1
1.455862192E1,-1.914389661E0,1.073769234E1,-2.412061826E0,1.117054013E1
1.456864692E1,-2.769806466E0,1.058399594E1,-4.096500814E0,1.168221369E1
1.457867192E1,-3.314144529E0,1.016409452E1,-3.827445863E0,1.135525047E1
1.458869692E1,-3.465888546E0,9.753301889E0,-1.498049487E0,1.045865352E1
1.459872192E1,-3.733055723E0,9.476264904E0,9.881117637E-1,1.023287186E1
1.460874692E1,-4.441680373E0,9.234460317E0,2.732150105E0,1.060511320E1
1.461877192E1,-5.260205487E0,9.122439360E0,3.767260473E0,1.118395785E1
1.462879592E1,-5.718225490E0,9.022404025E0,4.546455460E0,1.160914012E1
1.463882092E1,-5.377649152E0,9.051047781E0,5.174548455E0,1.173100712E1
1.464884592E1,-4.226816247E0,9.189689941E0,5.685419102E0,1.160346359E1
1.465887092E1,-2.918662836E0,9.282712126E0,6.004878806E0,1.143441763E1
1.466889592E1,-1.709657152E0,9.264446009E0,6.042348933E0,1.119208953E1
1.467892092E1,-3.513761820E-1,9.353374557E0,6.138569545E0,1.119335146E1
1.468894592E1,6.178149055E-1,9.467390585E0,6.482995105E0,1.149097060E1
1.469896992E1,1.077414680E0,9.422105654E0,6.355740981E0,1.141631905E1
1.470899492E1,1.251318914E0,9.390509639E0,5.668369206E0,1.103983151E1
1.471901992E1,1.159029386E0,9.404373972E0,4.762141997E0,1.060488545E1
1.472904492E1,1.166463974E0,9.523694009E0,3.764553212E0,1.030695138E1
1.473906992E1,1.713050145E0,9.695646003E0,3.003962895E0,1.029387611E1
1.474909492E1,6.363273364E0,1.051482337E1,1.210221905E0,1.234979334E1
1.475911992E1,3.837166860E0,1.032293179E1,3.686941949E0,1.161379831E1
1.476914492E1,3.230463272E0,1.017666486E1,3.682652724E0,1.129434955E1
1.477916892E1,2.763367220E0,9.975862119E0,3.616992001E0,1.096524758E1
1.478919392E1,2.146277954E0,9.435245517E0,3.665537924E0,1.034729604E1
1.479921892E1,1.679841761E0,9.007257982E0,3.273656946E0,9.729819860E0
1.480924392E1,1.034288541E0,8.768605630E0,2.471680914E0,9.168827843E0
1.481926892E1,3.970650826E-1,7.974129236E0,-5.989756152E-1,8.006445500E0
1.482929392E1,1.737179265E-1,5.783292722E0,-9.659349997E0,1.125964897E1
1.483931892E1,3.176135914E-1,4.324044626E0,-7.543751360E0,8.700943909E0
1.484934292E1,8.332494266E-1,2.495884001E-2,-1.863737541E1,1.865600948E1
1.485936792E1,-2.738578717E-1,-2.669023331E1,-6.642292906E1,7.158525726E1
1.486939292E1,-7.078826380E-1,-2.669653895E1,-6.641957510E1,7.158747269E1
1.487941792E1,-9.841296637E-1,-2.665941147E1,-6.653042895E1,7.167977893E1
1.488944292E1,-1.107746015E0,-2.665146861E1,-6.656798678E1,7.171349068E1
1.489946792E1,-1.149839097E0,-2.672108088E1,-6.642409850E1,7.160655805E1
1.490949292E1,-1.099793583E0,-8.145446223E0,9.974350029E-1,8.279656797E0
1.491951692E1,-2.910049303E0,1.223259734E0,7.936168528E-1,3.254931494E0
1.492954192E1,-3.749219181E0,7.539367118E0,-3.041873610E-1,8.425629410E0
1.493956692E1,-2.922839210E0,5.044930303E0,1.233442075E0,5.959504187E0
1.494959192E1,1.436089028E0,-4.516799845E0,1.397544183E0,4.941352272E0
1.495961692E1,3.297027975E0,-1.325947834E1,-4.214159072E0,1.429836690E1
1.496964192E1,3.783887323E0,-2.015671125E1,-6.601712294E0,2.154514833E1
1.497966692E1,3.588909286E0,-2.010246546E1,-6.765673483E0,2.151194378E1
1.498969192E1,3.437848223E0,-2.004934233E1,-6.931185939E0,2.149037615E1
1.499971592E1,3.337557365E0,-1.999215423E1,-7.103481749E0,2.147754578E1
1.500974092E1,3.286999415E0,-1.992828860E1,-7.286666830E0,2.147176204E1
1.501976592E1,-4.426196069E-1,-7.858444414E0,-9.174003616E-1,7.924183500E0
1.502979092E1,-1.864933911E0,-6.383491282E0,-2.708100800E0,7.180581409E0
1.503981592E1,-2.588025595E0,-5.797593257E0,-3.865453935E0,7.433148604E0
1.504984092E1,-2.675746109E0,-5.536993965E0,-4.862396894E0,7.839695336E0
1.505986592E1,-3.086471786E0,-6.755177731E0,-6.534593275E0,9.892403324E0
1.506988992E1,-3.856072954E0,-9.661649707E0,-7.856453437E0,1.303612804E1
1.507991492E1,-4.171627010E0,-1.356570637E1,-7.543539691E0,1.607282963E1
1.508993992E1,-4.060254216E0,-1.351299723E1,-7.811398301E0,1.612776184E1
1.509996492E1,-3.966642340E0,-1.347314612E1,-8.055745257E0,1.619119975E1
1.510998992E1,-3.890603979E0,-1.344426204E1,-8.271288829E0,1.625728145E1
1.512001492E1,3.774671161E-1,-6.687421950E0,-4.952364786E0,8.330066670E0
1.513003992E1,1.752952276E0,-1.916616134E0,-3.751351368E0,4.562772860E0
1.514006392E1,3.068740981E0,1.865582805E0,-1.487834548E0,3.887315533E0
1.515008892E1,3.452014565E0,4.794403424E0,-1.215975273E-1,5.909102699E0
1.516011392E1,3.501147549E0,6.933671005E0,3.058666448E-1,7.773505141E0
1.517013892E1,3.312515495E0,8.207782804E0,-2.640836477E-1,8.854953283E0
1.518016392E1,2.660486045E0,9.298210756E0,-7.561233366E-1,9.700857269E0
1.519018892E1,1.971837531E0,1.011044631E1,-9.278046048E-1,1.034263454E1
1.520021392E1,1.335375855E0,1.064286336E1,-8.497068536E-1,1.075991501E1
1.521023892E1,5.692495403E-1,1.085766434E1,-6.610242212E-1,1.089265225E1
1.522026292E1,2.290288590E-2,1.088545732E1,-5.516555607E-1,1.089945088E1
1.523028792E1,-7.018676072E-2,1.101607360E1,-9.736313900E-2,1.101672743E1
1.524031292E1,-2.127982309E-1,1.106222567E1,4.055395253E-1,1.107170186E1
1.525033792E1,-5.252838872E-1,1.098306022E1,5.850583649E-1,1.101116834E1
1.526036292E1,-8.236289296E-1,1.082567656E1,8.196954346E-1,1.088786197E1
1.527038792E1,-1.022694828E0,1.060311165E1,1.035966327E0,1.070257482E1
1.528041246E1,-1.095696146E0,1.041937577E1,1.095556544E0,1.053395394E1
1.529043646E1,-1.185230028E0,1.030167365E1,1.176226047E0,1.043612754E1
1.530046146E1,-1.317065445E0,1.020745864E1,1.250146255E0,1.036772583E1
1.531048646E1,-1.566310029E0,1.010685612E1,1.392875912E0,1.032191703E1
1.532051146E1,-1.985843513E0,1.004557847E1,1.169555543E0,1.030655527E1
1.533053646E1,-2.667253028E0,1.006129228E1,-2.161937821E-1,1.041107971E1
1.534056146E1,-3.285269224E0,1.008605991E1,-1.078847541E0,1.066234076E1
1.535058646E1,-3.518575467E0,9.984188554E0,5.619104075E-1,1.060094985E1
1.536061146E1,-3.572556670E0,9.891088017E0,2.396444644E0,1.078608966E1
1.537063546E1,-3.350779674E0,9.995764872E0,2.981045026E0,1.095580528E1
1.538066046E1,-2.710328881E0,1.014410756E1,3.158863531E0,1.096481736E1
1.539068546E1,-2.098235769E0,1.029608956E1,3.363183957E0,1.103281741E1
1.540071046E1,-1.506455298E0,1.042899444E1,3.570264269E0,1.112565142E1
1.541073546E1,-8.488576917E-1,1.055262562E1,3.654993055E0,1.119988577E1
1.542076046E1,-4.644564722E-1,1.057505320E1,3.747509455E0,1.122903812E1
1.543078546E1,-2.351563755E-1,1.060305669E1,3.797758088E0,1.126512655E1
1.544080946E1,-5.569838360E-3,1.064968823E1,3.762920669E0,1.129493083E1
1.545083446E1,1.176406433E-1,1.061785131E1,3.666273211E0,1.123361763E1
1.546085946E1,2.477155370E-1,1.056704135E1,3.364615063E0,1.109253625E1
1.547088446E1,3.038376975E-1,1.044178697E1,3.090074840E0,1.089365848E1
1.548090946E1,3.593444021E-1,1.019130395E1,2.841313528E0,1.058606949E1
1.549093446E1,6.039298514E-1,9.829906261E0,1.270936469E0,9.930109157E0
1.550095946E1,2.808593679E0,9.176910267E0,-3.120004398E0,1.009149681E1
1.551098346E1,7.342210554E-1,8.172715298E0,-3.374105094E0,8.872256820E0
1.552100846E1,2.170781735E-1,7.280196301E0,-3.197426503E0,7.954364673E0
1.553103346E1,-1.365278369E0,5.851174217E0,-3.486398240E0,6.946596104E0
1.554105846E1,-2.989254809E0,4.536056480E0,-4.442340816E0,7.017538359E0
1.555108346E1,-3.501238473E0,2.885975731E0,-6.604683264E0,8.013074802E0
1.556110846E1,-6.838071953E0,-1.127798793E1,-5.441687858E1,5.599240050E1
1.557113346E1,-6.993343011E0,-1.138318285E1,-5.422982849E1,5.585121302E1
1.558115746E1,-7.397764512E0,-1.138754721E1,-5.427957192E1,5.595243587E1
1.559118246E1,-7.846679816E0,-1.137151063E1,-5.441787027E1,5.614433402E1
1.560120746E1,-8.183179475E0,-1.140517189E1,-5.446481172E1,5.624462719E1
1.561123246E1,-8.393735372E0,-1.145266531E1,-5.445627478E1,5.627703083E1
1.562125746E1,-8.597085745E0,-1.146198694E1,-5.452899076E1,5.637994201E1
1.563128246E1,1.730069489E0,-7.540348281E0,6.491860653E0,1.009922014E1
1.564130746E1,5.671376429E0,-6.366142593E0,-4.549742356E1,4.628939222E1
1.565133146E1,6.036176612E0,-1.972713970E1,-2.603803956E1,3.322009893E1
1.566135646E1,6.019348326E0,-1.970104943E1,-2.610448030E1,3.325368843E1
1.567138146E1,6.063973106E0,-1.963584829E1,-2.621854544E1,3.331291691E1
1.568140646E1,6.124512838E0,-1.955576717E1,-2.636190046E1,3.338993086E1
1.569143146E1,2.138924496E0,-7.568470464E0,-1.246924468E1,1.474241521E1
1.570145646E1,1.558570070E0,-7.705568376E0,-9.059446721E0,1.199493641E1
1.571148146E1,2.823569568E0,-8.809871770E0,7.273348626E-1,9.279838452E0
1.572150546E1,3.196025510E0,-1.012414049E1,2.575059102E0,1.092445555E1
1.573153046E1,2.492099391E0,-9.840860435E0,-2.281387666E-1,1.015407016E1
1.574155546E1,1.732225796E0,-9.410004841E0,-2.823530391E0,9.976027325E0
1.575158046E1,7.185583381E-1,-1.016948448E1,-3.142193120E0,1.066808878E1
1.576160546E1,8.215447627E-1,-1.009232930E1,-3.368611928E0,1.067134447E1
1.577163046E1,-8.510186765E-1,-8.516436269E0,-1.772262121E0,8.740413751E0
1.578165546E1,-2.333272934E-2,-5.364950754E0,-1.974829259E0,5.716921515E0
1.579167946E1,-3.536644533E-2,-2.064313293E0,-1.749341766E0,2.706074051E0
1.580170446E1,-1.101331839E-1,5.163062185E-1,-1.099311480E0,1.219502833E0
1.581172946E1,5.577764261E-1,3.055091241E0,-4.469295895E-1,3.137585551E0
1.582175446E1,1.024953023E0,5.282571087E0,-2.911913395E-2,5.381164736E0
1.583177946E1,1.195654006E0,7.215851201E0,2.682166059E-1,7.319155498E0
1.584180446E1,8.775591883E-1,8.558378347E0,9.933323041E-3,8.603258030E0
1.585182946E1,2.700236879E-1,9.312337629E0,-4.914478775E-1,9.329204999E0
1.586185346E1,-1.412690225E-1,9.919717155E0,-6.250754663E-1,9.940395601E0
1.587187846E1,-5.062824829E-1,1.030368510E1,-1.692138163E-1,1.031750366E1
1.588190346E1,-1.422132017E-1,1.069996376E1,-1.699520127E0,1.083502736E1
1.589192846E1,-6.811061910E-1,1.073995521E1,-1.482348690E0,1.086314417E1
1.590195346E1,-9.352650672E-1,1.068623567E1,-1.294487007E0,1.080490861E1
1.591197846E1,-1.312439713E0,1.071492913E1,-1.617159755E0,1.091546654E1
1.592200346E1,-2.052866199E0,1.081076850E1,-2.800092412E0,1.135462429E1
1.593202846E1,-2.761176853E0,1.072708900E1,-4.691465532E0,1.202931356E1
1.594205246E1,-3.400313192E0,1.025090111E1,-5.199801410E0,1.198670255E1
1.595207746E1,-3.620805262E0,9.843526765E0,-4.676887254E0,1.148383753E1
1.596210246E1,-3.559502176E0,9.631178112E0,-3.593201727E0,1.087845330E1
1.597212746E1,-3.508853594E0,9.446623614E0,-2.383494669E0,1.035527875E1
1.598215246E1,-3.564860272E0,9.239980674E0,-1.252476809E0,9.982693513E0
1.599217746E1,-3.611911647E0,9.060048400E0,-2.493565580E-1,9.756667538E0
1.600220246E1,-3.425868156E0,8.927012549E0,1.594081087E0,9.693772237E0
1.601222646E1,-2.872948135E0,9.030098376E0,4.707084614E0,1.058079171E1
1.602225146E1,-2.062457679E0,9.256268678E0,6.781338758E0,1.165842171E1
1.603227646E1,-1.111263189E0,9.422228445E0,6.932472911E0,1.175042448E1
1.604230146E1,-2.373604104E-1,9.570222058E0,6.592463168E0,1.162351327E1
1.605232646E1,4.642928598E-1,9.709477007E0,6.118579084E0,1.148592711E1
1.606235146E1,9.079711416E-1,9.808529425E0,5.843997345E0,1.145355692E1
1.607237646E1,1.199807502E0,9.823974845E0,5.756437629E0,1.144930539E1
1.608240046E1,1.244499745E0,9.805071967E0,5.431242392E0,1.127770410E1
1.609242546E1,9.777449428E-1,9.746312127E0,4.817162249E0,1.091566019E1
1.610245046E1,2.374679553E0,1.003897346E1,2.570007400E0,1.063132302E1
1.611247546E1,8.991022311E-1,1.002629202E1,3.355829037E0,1.061115003E1
1.612250046E1,-4.401498161E-1,9.858307357E0,3.292719454E0,1.040297829E1
1.613252546E1,-8.751089126E-2,9.889835544E0,2.251275382E0,1.014321182E1
1.614255046E1,-6.390889764E-1,9.597180061E0,2.179396730E0,9.862254811E0
1.615257446E1,-7.978460708E-1,9.161289430E0,1.469321094E0,9.312609025E0
1.616259946E1,-1.228799971E0,8.049020374E0,-4.828549117E0,9.466338518E0
1.617262446E1,-1.741367041E0,6.123962030E0,-1.133074502E1,1.299696321E1
1.618264946E1,-1.285381722E0,5.320721245E0,-5.008893328E0,7.419655862E0
1.619267446E1,-2.564734088E0,-6.371241950E0,-2.325353699E1,2.424659909E1
1.620269946E1,-5.267899253E0,-4.765983150E1,-7.611258868E1,8.995741468E1
1.621272446E1,-5.703964131E0,-4.772537644E1,-7.604584622E1,8.996231151E1
1.622274846E1,-6.048980260E0,-4.776189114E1,-7.606796741E1,9.002290860E1
1.623277346E1,-6.262558583E0,-4.782115384E1,-7.600946251E1,9.001955779E1
1.624279846E1,-6.388925099E0,-4.789920247E1,-7.588153946E1,8.996199193E1
1.625282346E1,7.056566030E-2,-3.952017285E0,1.075103685E1,1.145461538E1
1.626284846E1,-1.073599665E0,1.242227517E0,9.858269935E0,9.994059813E0
1.627287346E1,-6.205886784E0,3.272674906E-1,3.961797922E0,7.369937419E0
1.628289867E1,-8.319240090E0,-1.197653607E1,-7.368091646E0,1.633817451E1
1.629292267E1,4.013920587E-1,-2.674494922E1,-2.351141791E1,3.561236016E1
1.630294767E1,4.058438364E-1,-2.673745776E1,-2.353115811E1,3.561982256E1
1.631297267E1,3.576361746E-1,-2.672587326E1,-2.358943614E1,3.564914729E1
1.632299767E1,3.121882524E-1,-2.668302019E1,-2.374545389E1,3.572012889E1
1.633302267E1,2.757187298E0,-7.481720588E0,-6.356288865E-1,7.998890475E0
1.634304767E1,-4.158791202E-1,-7.185909948E0,-1.816330246E0,7.423564696E0
1.635307267E1,-9.124023078E-1,-8.173420472E0,-1.939581366E0,8.449808049E0
1.636309667E1,-1.431744839E-1,-8.958451273E0,-3.105921671E0,9.482673546E0
1.637312167E1,4.063032813E-1,-8.643755296E0,-3.894929749E0,9.489471309E0
1.638314667E1,3.315472139E-1,-7.416452798E0,-3.947183976E0,8.407969850E0
1.639317167E1,1.411086626E-1,-4.310344015E0,-4.138449908E0,5.977101708E0
1.640319667E1,2.373389219E-1,-1.565569772E0,-4.598017670E0,4.863034543E0
1.641322167E1,1.125209090E0,3.967446917E-1,-4.267733016E0,4.431370775E0
1.642324667E1,2.292144789E0,1.993909893E0,-3.590059433E0,4.702991721E0
1.643327067E1,3.001649152E0,3.089049531E0,-3.062535331E0,5.285002109E0
1.644329567E1,2.688769028E0,4.278294842E0,-2.433508244E0,5.608497839E0
1.645332067E1,1.969801969E0,5.766715865E0,-2.270849229E0,6.503221347E0
1.646334567E1,1.442941088E0,7.552278355E0,-2.253591757E0,8.012344422E0
1.647337067E1,8.631066254E-1,8.836592376E0,-2.008956533E0,9.103088718E0
1.648339567E1,2.934971890E-1,9.514938388E0,-1.464190162E0,9.631409345E0
1.649342067E1,-3.567620158E-1,9.847446738E0,-1.283912902E0,9.937198737E0
1.650344467E1,-7.954660347E-1,1.013918421E1,-1.081913236E0,1.022772501E1
1.651346967E1,-1.057759265E0,1.027408649E1,-9.652542669E-1,1.037339981E1
1.652349467E1,-1.422210223E0,1.038216876E1,-1.164004050E0,1.054357698E1
1.653351967E1,-2.394643994E0,1.041751752E1,-3.156504765E0,1.114551540E1
1.654354467E1,-3.252552883E0,1.043182215E1,-6.760224463E0,1.284922754E1
1.655356967E1,-3.678500909E0,1.003782974E1,-5.984612356E0,1.225173375E1
1.656359467E1,-3.545494879E0,9.626022622E0,-3.028054301E0,1.069579162E1
1.657361867E1,-3.328957281E0,9.381888505E0,-3.232489917E-1,9.960234857E0
1.658364367E1,-3.335752330E0,9.140134789E0,1.827678084E0,9.899985593E0
1.659366867E1,-3.652107747E0,9.042803791E0,3.107268285E0,1.023549254E1
1.660369367E1,-3.584148483E0,9.110757793E0,4.250674349E0,1.067334345E1
1.661371867E1,-2.799450096E0,9.300561921E0,5.301377487E0,1.106535025E1
1.662374367E1,-1.837648025E0,9.560251386E0,5.769529545E0,1.131648479E1
1.663376867E1,-8.462009362E-1,9.732564738E0,5.771645068E0,1.134683917E1
1.664379267E1,-1.279085733E-2,9.761891448E0,5.715871986E0,1.131220053E1
1.665381767E1,6.196849912E-1,9.787539091E0,5.851220995E0,1.142001393E1
1.666384267E1,1.079548841E0,9.852993407E0,5.871775128E0,1.152061838E1
1.667386767E1,1.326293229E0,9.900670434E0,5.695807850E0,1.149889368E1
1.668389267E1,1.277157321E0,9.923159995E0,5.367928741E0,1.135406949E1
1.669391767E1,9.991475062E-1,9.932363513E0,4.486685222E0,1.094442712E1
1.670394267E1,1.899266130E0,1.027625464E1,2.352396253E0,1.071178740E1
1.671396667E1,1.673419325E0,1.068319278E1,2.356093447E0,1.106716389E1
1.672399167E1,6.843113422E-1,1.069335524E1,2.689677977E0,1.104764662E1
1.673401667E1,1.091240276E0,1.076751431E1,1.995322580E0,1.100506619E1
1.674404167E1,6.736851241E-1,1.044623320E1,2.339036242E0,1.072607711E1
1.675406667E1,3.688721111E-1,9.799718256E0,1.772687213E0,9.965589019E0
1.676409167E1,-1.017477796E0,8.006608765E0,-9.810394102E0,1.270373478E1
1.677411667E1,-4.165726000E0,5.803726401E0,-1.719846335E1,1.862320205E1
1.678414067E1,-2.796546368E0,5.519317832E0,-3.638562672E0,7.177930010E0
1.679416567E1,-8.221824747E-1,4.292645663E0,2.874809888E0,5.231378662E0
1.680419067E1,-2.361730017E0,-9.540757939E0,-2.848022741E1,3.012851115E1
1.681421567E1,4.776422359E-2,-3.852513813E1,-4.322217839E1,5.789944088E1
1.682424067E1,-6.801979722E-1,-3.854296979E1,-4.338423982E1,5.803632875E1
1.683426567E1,-1.192187776E0,-3.857460323E1,-4.354332619E1,5.818455621E1
1.684429067E1,-1.515674896E0,-3.864325188E1,-4.356353416E1,5.825272264E1
1.685431467E1,-1.718070418E0,-3.872136600E1,-4.350561866E1,5.826692721E1
1.686433967E1,-4.254422414E-1,-5.198171207E0,8.917426039E0,1.033065691E1
1.687436467E1,-1.636402357E0,-3.615379046E0,5.186315392E0,6.530439929E0
1.688438967E1,-3.920411330E0,-6.640582829E0,-6.657528060E0,1.018772031E1
1.689441467E1,-2.588365903E0,-1.881041908E1,-1.785388009E1,2.606324113E1
1.690443967E1,-2.446778061E0,-1.872338561E1,-1.799725265E1,2.608549395E1
1.691446367E1,-2.422222825E0,-1.868072667E1,-1.810094951E1,2.612433894E1
1.692448867E1,-2.443810891E0,-1.864971888E1,-1.820471303E1,2.617624500E1
1.693451367E1,-2.449057159E0,-1.860133083E1,-1.835495840E1,2.624713104E1
1.694453867E1,2.314459664E0,-8.722079920E0,-3.516855801E0,9.685023303E0
1.695456367E1,2.011615701E0,-7.947860620E0,-1.767857998E0,8.386918866E0
1.696458867E1,1.960216190E0,-8.651954847E0,-1.229513039E0,8.956029952E0
1.697461367E1,1.982472154E0,-9.364251548E0,-2.376252308E0,9.862351542E0
1.698463867E1,1.674489658E0,-9.112413139E0,-3.572799622E0,9.929999294E0
1.699466267E1,1.256116408E-1,-7.105662761E0,-4.132043991E0,8.220706119E0
1.700468767E1,-6.506436592E-1,-5.021103483E0,-3.545086159E0,6.180813315E0
1.701471267E1,-4.868230954E-2,-3.076113151E0,-2.676781651E0,4.077989957E0
1.702473767E1,8.393393017E-1,-7.467110735E-1,-1.623838445E0,1.974568101E0
1.703476267E1,8.984793565E-1,1.625972679E0,-1.593830534E0,2.447723039E0
1.704478767E1,8.766487768E-1,3.712769685E0,-2.009692698E0,4.311848392E0
1.705481267E1,6.512106930E-1,5.751838794E0,-2.043018318E0,6.138537996E0
1.706483667E1,3.789280795E-1,7.468302398E0,-2.069912002E0,7.759101938E0
1.707486167E1,5.200294331E-2,8.666275263E0,-1.791797376E0,8.849721412E0
1.708488667E1,-3.606859361E-1,9.385112659E0,-1.171624142E0,9.464836877E0
1.709491167E1,-5.768355717E-1,9.851401795E0,-1.476709635E0,9.978152532E0
1.710493667E1,-1.026128021E0,1.019259385E1,-1.328478041E0,1.032989651E1
1.711496167E1,-9.618804234E-1,1.050437674E1,-1.110583888E0,1.060662723E1
1.712498667E1,-1.476682007E0,1.050147418E1,-1.349524509E0,1.069031179E1
1.713501067E1,-1.972027273E0,1.059374324E1,-2.150506514E0,1.098821941E1
1.714503567E1,-2.587469817E0,1.070397145E1,-4.547486032E0,1.191426179E1
1.715506067E1,-3.252633575E0,1.055776533E1,-5.749184743E0,1.245388129E1
1.716508567E1,-3.190553101E0,1.019649628E1,-3.701959938E0,1.130719562E1
1.717511067E1,-2.895988503E0,9.804418833E0,-8.136118452E-1,1.025550302E1
1.718513567E1,-2.920161477E0,9.508982415E0,1.244059742E0,1.002475806E1
1.719516067E1,-3.080132819E0,9.442066879E0,2.258100106E0,1.018522760E1
1.720518467E1,-3.032632378E0,9.526062716E0,2.806268241E0,1.038353848E1
1.721520967E1,-2.474615047E0,9.725493701E0,3.684303685E0,1.069032464E1
1.722523467E1,-1.482818806E0,1.000019823E1,4.931108987E0,1.124804659E1
1.723525967E1,-4.142194977E-1,1.031410016E1,6.237312645E0,1.206052689E1
1.724528467E1,3.896281186E-1,1.047797656E1,6.707710619E0,1.244721594E1
1.725530967E1,9.140091227E-1,1.049615672E1,6.395687989E0,1.232515896E1
1.726533367E1,9.935076474E-1,1.047156333E1,5.590566155E0,1.191197406E1
1.727535867E1,8.405341803E-1,1.044138702E1,4.742414368E0,1.149867622E1
1.728538396E1,6.524860438E-1,1.040953841E1,4.168483547E0,1.123211837E1
1.729540896E1,5.045806508E-1,1.038284002E1,3.684241120E0,1.102867178E1
1.730543396E1,3.615589254E-1,1.035287187E1,3.169762741E0,1.083328559E1
1.731545896E1,2.589633506E-1,1.034634170E1,2.814623328E0,1.072548149E1
1.732548396E1,4.665718487E-1,1.040530269E1,2.471584435E0,1.070498682E1
1.733550896E1,3.369899777E0,1.083483447E1,7.358384684E-1,1.137063414E1
1.734553296E1,1.023224440E0,1.053224808E1,2.012266642E0,1.077146484E1
1.735555796E1,1.137797122E0,1.006635012E1,2.139131633E0,1.035383365E1
1.736558296E1,1.620362495E-1,9.335420097E0,2.356749505E0,9.629672495E0
1.737560796E1,4.122458797E-2,9.217805693E0,2.029510081E0,9.438673235E0
1.738563296E1,-2.691387118E-1,9.108756291E0,1.907936819E0,9.310322213E0
1.739565796E1,-6.471286786E-1,8.698285845E0,1.879286340E-1,8.724349221E0
1.740568196E1,-8.928302883E-1,7.641335542E0,-4.447850062E0,8.886536163E0
1.741570696E1,-6.070893578E-1,6.947504933E0,-4.225642419E0,8.154289432E0
1.742573196E1,2.019175127E0,-3.283772337E0,-5.299379259E1,5.313381487E1
1.743575696E1,2.123693668E0,-3.170002477E1,-7.593682606E1,8.231526710E1
1.744578196E1,1.649623497E0,-3.168739011E1,-7.604321264E1,8.239770712E1
1.745580696E1,1.282344532E0,-3.167147633E1,-7.618402762E1,8.251504642E1
1.746583196E1,9.879483341E-1,-3.170627428E1,-7.620985361E1,8.254820202E1
1.747585596E1,7.132975982E-1,-3.177739747E1,-7.616202806E1,8.252857870E1
1.748588096E1,4.492421633E-1,-3.184734420E1,-7.613313814E1,8.252702511E1
1.749590596E1,1.071746974E0,-4.694023688E0,9.916227536E0,1.102334198E1
1.750593096E1,-1.559080824E0,-2.512922788E0,6.809039358E0,7.423512035E0
1.751595596E1,-5.220698774E0,-7.170541127E0,1.752882694E0,9.041291583E0
1.752598096E1,-5.568636757E0,-1.984996631E1,-2.475715551E1,3.221719459E1
1.753600596E1,-5.421588639E0,-1.975517827E1,-2.494038386E1,3.227512105E1
1.754602996E1,-5.380646435E0,-1.971955937E1,-2.502407389E1,3.231124652E1
1.755605496E1,-5.389842936E0,-1.970049745E1,-2.509067368E1,3.235277287E1
1.756607996E1,-5.409356264E0,-1.966934816E1,-2.520646726E1,3.242700085E1
1.757610496E1,2.749989375E0,-8.954464057E0,3.367226430E0,9.954048520E0
1.758612996E1,-2.008306907E0,-7.340624351E0,-2.280376975E0,7.944695189E0
1.759615496E1,-4.464873938E0,-8.520542184E0,-5.746789724E0,1.120537061E1
1.760617996E1,-2.607383387E0,-1.001887307E1,-5.002675399E0,1.149795751E1
1.761620396E1,1.444812343E0,-9.324903880E0,-3.666472017E0,1.012345455E1
1.762622896E1,2.065904467E0,-6.089569293E0,-3.161073779E0,7.165417146E0
1.763625396E1,5.164550301E-1,-2.141062676E0,-3.352139736E0,4.010949513E0
1.764627896E1,3.474824846E-2,9.959012783E-1,-2.785848595E0,2.958712421E0
1.765630396E1,2.277015410E-1,3.328601770E0,-2.399389740E0,4.109563098E0
1.766632896E1,8.757341261E-1,4.982175061E0,-2.961846278E0,5.861869324E0
1.767635396E1,1.417572796E0,6.497375747E0,-3.746857198E0,7.633108351E0
1.768637796E1,1.437512387E0,7.880873163E0,-4.188669305E0,9.039886848E0
1.769640296E1,1.211872428E0,9.219997230E0,-4.316836764E0,1.025241744E1
1.770642796E1,1.073272659E0,1.028593295E1,-4.247988138E0,1.118023855E1
1.771645296E1,6.424294907E-1,1.075136430E1,-3.760145581E0,1.140803422E1
1.772647796E1,7.045134723E-2,1.095235415E1,-3.824405311E0,1.160108188E1
1.773650296E1,-2.844392672E-1,1.107650223E1,-4.712087492E0,1.204049733E1
1.774652796E1,-7.364003858E-1,1.089509120E1,-4.507671171E0,1.181373764E1
1.775655196E1,-1.359684923E0,1.054622877E1,-3.681312250E0,1.125272164E1
1.776657696E1,-2.049598483E0,1.018467788E1,-2.658471680E0,1.072361829E1
1.777660196E1,-2.691242985E0,9.742388645E0,-9.478126073E-1,1.015161436E1
1.778662696E1,-3.143981198E0,9.317257476E0,1.024203995E0,9.886601968E0
1.779665196E1,-3.486705803E0,9.058360308E0,2.153467544E0,9.942254840E0
1.780667696E1,-3.877588077E0,8.849348077E0,2.815666763E0,1.006352970E1
1.781670196E1,-4.325053856E0,8.586596425E0,3.534881890E0,1.024358917E1
1.782672596E1,-4.316470728E0,8.358685407E0,4.251637093E0,1.032356330E1
1.783675096E1,-3.965227607E0,8.266915696E0,4.975733768E0,1.043181919E1
1.784677596E1,-3.586972688E0,8.189719586E0,5.561033038E0,1.052914851E1
1.785680096E1,-2.763083630E0,8.201870685E0,6.135675173E0,1.060904443E1
1.786682596E1,-4.949331835E-1,8.462707373E0,6.667278292E0,1.078494204E1
1.787685096E1,-1.290645386E0,8.152816054E0,7.349193445E0,1.105191474E1
1.788687596E1,-1.004874562E0,8.160132090E0,6.963325160E0,1.077429468E1
1.789689996E1,-1.394835898E0,8.216067724E0,6.362229052E0,1.048462181E1
1.790692496E1,-1.563916617E0,8.526118088E0,5.678972547E0,1.036297515E1
1.791694996E1,-1.527306908E0,9.110340886E0,5.170787526E0,1.058621845E1
1.792697496E1,-1.766010570E0,9.888445076E0,4.730926344E0,1.110323392E1
1.793699996E1,-2.056685893E0,1.052817725E1,4.368618536E0,1.158262927E1
1.794702496E1,-2.112561885E0,1.072342162E1,4.481115749E0,1.181249709E1
1.795704996E1,-2.000660796E0,1.058671840E1,4.544137624E0,1.169317907E1
1.796707396E1,-1.861541356E0,1.033731594E1,4.419408913E0,1.139546455E1
1.797709896E1,-1.796063066E0,1.005335410E1,4.175443780E0,1.103313654E1
1.798712396E1,-1.606339190E0,9.774279944E0,3.882906704E0,1.063925930E1
1.799714896E1,-1.329356000E0,9.578611643E0,3.632767788E0,1.033024638E1
1.800717396E1,-1.693630811E0,9.112052366E0,3.773546522E0,1.000687449E1
1.801719896E1,-2.226565049E0,8.537104422E0,3.524871457E0,9.500761160E0
1.802722396E1,-2.896365356E0,7.796793126E0,2.718147778E0,8.750271005E0
1.803724796E1,-2.976752585E0,2.366041315E0,-4.683025953E0,6.032407441E0
1.804727296E1,2.218698644E0,-1.588081318E1,-5.614769184E1,5.839251792E1
1.805729796E1,3.194433898E0,-5.265535107E1,-7.087842319E1,8.835463359E1
1.806732296E1,2.770687349E0,-5.271367354E1,-7.096692664E1,8.844610089E1
1.807734796E1,2.424482774E0,-5.276972729E1,-7.105878406E1,8.854305747E1
1.808737296E1,2.212810936E0,-5.281808142E1,-7.109751602E1,8.859742119E1
1.809739696E1,-4.938960629E0,-9.765262953E0,7.086906062E0,1.303755844E1
1.810742196E1,-3.148761297E0,-2.292519010E0,4.696934432E0,6.101764841E0
1.811744696E1,-2.398701815E0,-1.182978850E0,5.300027364E0,5.936623571E0
1.812747196E1,-3.710592182E0,-4.258471026E0,-2.266871953E0,6.086195715E0
1.813749696E1,-2.424498561E0,-1.374130528E1,-2.504209501E1,2.866719704E1
1.814752196E1,2.037523982E0,-2.659117212E1,-1.629031591E1,3.125086129E1
1.815754696E1,2.108627879E0,-2.653306249E1,-1.641296126E1,3.127035360E1
1.816757096E1,2.190931240E0,-2.648269458E1,-1.650603724E1,3.128230422E1
1.817759596E1,2.291652453E0,-2.643138409E1,-1.659158551E1,3.129137973E1
1.818762096E1,2.411302126E0,-2.636653145E1,-1.671933080E1,3.131364529E1
1.819764596E1,5.168823154E-1,-7.489997322E0,-4.308985415E0,8.656476334E0
1.820767096E1,-1.246661314E0,-6.743110247E0,-5.508543752E0,8.795894185E0
1.821769596E1,-8.371751010E-1,-7.680289108E0,-4.454103659E0,8.917776760E0
1.822772096E1,2.567755052E-1,-7.051426327E0,-4.194923487E0,8.208893346E0
1.823774496E1,1.088498370E0,-4.711619130E0,-3.312551748E0,5.861500030E0
1.824776996E1,2.175250762E0,-1.795162448E0,-1.856037372E0,3.376269956E0
1.825779496E1,2.905145243E0,1.417397819E0,-4.189657923E-1,3.259511895E0
1.826781996E1,2.836285800E0,4.421177988E0,5.736250117E-2,5.253058385E0
1.827784496E1,2.465722016E0,6.355075568E0,-2.354579457E-1,6.820719242E0
1.828786933E1,2.024883325E0,7.450368987E0,-7.888595581E-1,7.760827915E0
1.829789433E1,1.462170972E0,8.406845999E0,-1.348718762E0,8.638984078E0
1.830791833E1,1.287204300E0,9.520681524E0,-1.553282433E0,9.732058256E0
1.831794333E1,7.756243855E-1,1.032198688E1,-1.813202863E0,1.050869692E1
1.832796833E1,4.726085141E-2,1.074509374E1,-2.030916921E0,1.093544223E1
1.833799333E1,-9.257041387E-1,1.055065277E1,-1.167593071E0,1.065534963E1
1.834801833E1,-1.276960562E0,1.064297563E1,-1.089248568E0,1.077450792E1
1.835804333E1,-1.658112923E0,1.065539278E1,-9.485119343E-1,1.082526714E1
1.836806833E1,-2.684892908E0,1.040682296E1,-4.918911695E-1,1.075883688E1
1.837809233E1,-4.870980315E0,9.976976599E0,-4.360653459E0,1.192819391E1
1.838811733E1,-7.230930001E0,9.373211821E0,-8.379898521E0,1.450400454E1
1.839814233E1,-6.553815411E0,9.376896737E0,-4.146861713E0,1.216861335E1
1.840816733E1,-4.715492910E0,9.351205240E0,-9.890813783E-2,1.047333260E1
1.841819233E1,-3.362705070E0,9.119057330E0,2.190949220E0,9.963194792E0
1.842821733E1,-2.870519786E0,9.066207272E0,3.130416827E0,1.001176846E1
1.843824233E1,-2.305946556E0,9.030125273E0,3.781919442E0,1.005800510E1
1.844826633E1,-1.513195384E0,9.026574844E0,4.489523461E0,1.019434326E1
1.845829133E1,-1.004513423E0,9.013289970E0,5.019620630E0,1.036556967E1
1.846831633E1,-4.480836472E-1,9.047100325E0,5.395386096E0,1.054329144E1
1.847834133E1,9.010042207E-2,9.128006494E0,5.593696754E0,1.070598263E1
1.848836633E1,5.487406141E-1,9.287051929E0,5.618927490E0,1.086843116E1
1.849839133E1,8.454571704E-1,9.391767960E0,5.514847051E0,1.092399383E1
1.850841633E1,8.511838603E-1,9.415720494E0,5.333084013E0,1.085458850E1
1.851844033E1,7.271618582E-1,9.437441731E0,5.316614161E0,1.085635560E1
1.852846533E1,5.911855160E-1,9.422619039E0,5.367891319E0,1.086045612E1
1.853849033E1,3.126642157E-1,9.410396605E0,5.289336315E0,1.079955563E1
1.854851533E1,1.146146727E-1,9.435965309E0,5.251271526E0,1.079937176E1
1.855854033E1,-1.559854411E-3,9.494663753E0,5.314220896E0,1.088069786E1
1.856856533E1,-1.141902014E-1,9.562803696E0,5.262946662E0,1.091599109E1
1.857859033E1,-2.614541183E-1,9.659514304E0,4.999682794E0,1.087986226E1
1.858861433E1,2.898682608E-1,9.844203873E0,4.370859774E0,1.077482198E1
1.859863933E1,4.318691354E-1,9.859127136E0,3.983329124E0,1.064217129E1
1.860866433E1,-2.184500033E-1,9.456429979E0,3.857833551E0,1.021541326E1
1.861868933E1,-8.806433022E-2,9.001611911E0,3.210882408E0,9.557538290E0
1.862871433E1,-1.086759627E0,8.663583205E0,2.846407915E0,9.183722473E0
1.863873933E1,-1.119663299E0,8.175608500E0,1.357838372E0,8.362890965E0
1.864876333E1,-1.739399599E0,1.982511916E0,-1.144145620E1,1.174149839E1
1.865878833E1,-1.374437887E0,-2.750825410E1,-9.323347936E1,9.721663847E1
1.866881333E1,-1.468687840E0,-2.758716813E1,-9.303180187E1,9.704702494E1
1.867883833E1,-1.616579419E0,-2.763327459E1,-9.291991891E1,9.695526042E1
1.868886333E1,-1.782167158E0,-2.766293635E1,-9.285547791E1,9.690487060E1
1.869888833E1,-2.013325719E0,-2.768130362E1,-9.283101316E1,9.689120216E1
1.870891333E1,4.597660990E0,-6.453882403E0,7.554298568E0,1.094799121E1
1.871893733E1,2.933130017E0,-4.939095699E0,6.415180267E0,8.611182026E0
1.872896233E1,2.020271480E-1,-6.775714322E0,1.928090418E0,7.047599038E0
1.873898733E1,-2.358572374E0,-1.269724984E1,-1.043076614E1,1.660071985E1
1.874901233E1,-2.054679713E0,-2.404000854E1,-1.391180775E1,2.785107026E1
1.875903733E1,-2.049249404E0,-2.399973760E1,-1.402696281E1,2.787368856E1
1.876906233E1,-2.003911555E0,-2.397197268E1,-1.409434145E1,2.788048774E1
1.877908633E1,-1.941200606E0,-2.394263135E1,-1.416321931E1,2.788574254E1
1.878911133E1,2.130535788E0,-9.430477697E0,-2.715911803E0,1.004237369E1
1.879913633E1,4.726507603E-1,-7.827387512E0,-4.075799624E0,8.837620527E0
1.880916133E1,8.591404590E-1,-8.602530087E0,-2.404867412E0,8.973574176E0
1.881918633E1,1.111005984E0,-9.936762958E0,-1.424265373E0,1.009961010E1
1.882921133E1,8.700751908E-1,-9.083898607E0,-1.859467056E0,9.312994281E0
1.883923633E1,8.694444224E-1,-5.890568663E0,-2.508096496E0,6.461058800E0
1.884926033E1,1.206496790E0,-2.005394409E0,-2.613877305E0,3.508503357E0
1.885928533E1,1.411462895E0,1.424798639E0,-2.318624343E0,3.065664285E0
1.886931033E1,1.084969722E0,3.939649254E0,-1.811076523E0,4.469674900E0
1.887933533E1,9.528536381E-1,5.639268783E0,-1.339863739E0,5.874054588E0
1.888936033E1,9.107784630E-1,6.655133625E0,-1.532656964E0,6.889801038E0
1.889938533E1,1.311488517E0,7.450386529E0,-1.761210591E0,7.767246894E0
1.890941033E1,1.719385165E0,8.029333969E0,-1.655274246E0,8.376539987E0
1.891943433E1,1.342777991E0,8.675063043E0,-1.398893720E0,8.889132420E0
1.892945933E1,7.875091437E-1,9.449499274E0,-1.008918350E0,9.535781217E0
1.893948433E1,6.970451161E-1,1.008310941E1,-1.307191837E0,1.019135505E1
1.894950933E1,4.098169463E-1,1.057700267E1,-1.554879892E0,1.069853199E1
1.895953433E1,-1.064779432E-1,1.097424613E1,-2.397691709E0,1.123362547E1
1.896955933E1,-1.283558414E0,1.100287643E1,-3.654582288E0,1.166476676E1
1.897958433E1,-2.932386836E0,1.074288817E1,-5.816874450E0,1.256362079E1
1.898960833E1,-3.817741824E0,1.031919659E1,-6.338923219E0,1.269814626E1
1.899963333E1,-3.403397598E0,9.933658086E0,-2.812923542E0,1.087075053E1
1.900965833E1,-2.658792984E0,9.761786783E0,1.286893812E0,1.019890960E1
1.901968333E1,-2.261188606E0,9.694740270E0,3.431175089E0,1.052966881E1
1.902970833E1,-2.089608640E0,9.690841346E0,3.709051441E0,1.058470278E1
1.903973333E1,-1.858852660E0,9.714598584E0,3.861169095E0,1.061778629E1
1.904975733E1,-1.418324602E0,9.690368307E0,4.463659179E0,1.076285909E1
1.905978233E1,-9.559250343E-1,9.729066934E0,4.942167826E0,1.095415715E1
1.906980733E1,-4.618681291E-1,9.780527694E0,5.173364979E0,1.107410264E1
1.907983233E1,1.995793574E-1,9.815629699E0,5.346179438E0,1.117891108E1
1.908985733E1,9.192792182E-1,9.788800335E0,5.554302893E0,1.129229679E1
1.909988233E1,1.493033600E0,9.837073778E0,5.862995533E0,1.154867466E1
1.910990733E1,1.752395328E0,9.834041412E0,6.032008717E0,1.166894978E1
1.911993133E1,1.724422980E0,9.764084154E0,5.956875504E0,1.156699355E1
1.912995633E1,1.479220722E0,9.698083123E0,5.741454724E0,1.136684708E1
1.913998133E1,1.115475669E0,9.653405133E0,5.339147576E0,1.108778668E1
1.915000633E1,6.597037737E-1,9.698880683E0,4.726281900E0,1.080931247E1
1.916003133E1,2.735796721E-1,9.796022816E0,4.174220543E0,1.065180858E1
1.917005633E1,-1.033973376E-1,9.798337144E0,3.622850618E0,1.044715982E1
1.918008033E1,-5.477905512E-1,9.737809691E0,3.092927989E0,1.023187254E1
1.919010533E1,-9.108709221E-1,9.614591315E0,2.722849524E0,1.003413980E1
1.920013033E1,-1.078809972E0,9.398488165E0,2.163820332E0,9.704510764E0
1.921015533E1,-9.173548995E-1,9.129371819E0,3.152853763E-1,9.180761117E0
1.922018033E1,1.775227828E-1,8.921760580E0,-3.957810706E0,9.761843666E0
1.923020533E1,-2.986905105E0,6.980201978E0,4.422084306E0,8.786333216E0
1.924023033E1,-6.609359867E0,2.842403449E0,5.789919956E0,9.235045658E0
1.925025433E1,-3.259487388E0,-5.144725317E0,-1.641968088E1,1.751280608E1
1.926027933E1,-2.143585458E0,-5.221546270E1,-1.241803687E2,1.347286661E2
1.927030433E1,-2.465960875E0,-5.224836147E1,-1.242200362E2,1.347834917E2
1.928032954E1,-2.695304461E0,-5.225648676E1,-1.243065282E2,1.348707457E2
1.929035454E1,-2.792300705E0,-5.229259917E1,-1.242631466E2,1.348467370E2
1.930037954E1,-2.821199691E0,-5.235724598E1,-1.241158903E2,1.347367604E2
1.931040454E1,5.769509665E0,-3.288650084E0,1.467863617E1,1.611101551E1
1.932042854E1,2.506863610E0,-1.713199103E-1,1.199297961E1,1.225337813E1
1.933045354E1,-3.435119913E0,-3.961596778E0,9.236800958E0,1.062133653E1
1.934047854E1,-3.016328879E0,-1.392892372E1,9.707240447E-1,1.428479825E1
1.935050354E1,2.183524279E-1,-2.509885744E1,-2.571188888E1,3.593190160E1
1.936052854E1,2.128073671E-1,-2.503844401E1,-2.589696729E1,3.602251907E1
1.937055354E1,1.339961095E-1,-2.502516381E1,-2.598087718E1,3.607329701E1
1.938057754E1,2.991771743E-2,-2.502158298E1,-2.605263421E1,3.612229587E1
1.939060254E1,-4.827607423E-2,-2.500469856E1,-2.615871673E1,3.618723175E1
1.940062754E1,-6.777112976E-2,-2.496386394E1,-2.631696110E1,3.627370311E1
1.941065254E1,7.236009769E-1,-7.321847772E0,1.760802163E0,7.565281054E0
1.942067754E1,1.154518843E0,-5.721607520E0,-3.289301464E-1,5.846186912E0
1.943070254E1,2.131265520E0,-5.155357894E0,-1.943887986E0,5.907512864E0
1.944072754E1,2.125224177E0,-4.016322623E0,-3.357011344E0,5.649508862E0
1.945075154E1,1.265248151E0,-2.205851580E0,-4.772116177E0,5.407377080E0
1.946077654E1,-1.079308301E-2,-1.627344435E-1,-5.803245760E0,5.805537042E0
1.947080154E1,-7.226510967E-1,2.156213982E0,-5.943923922E0,6.364095767E0
1.948082654E1,-5.327333862E-1,4.484860014E0,-5.352902566E0,7.003666189E0
1.949085154E1,1.617060645E-1,6.591475573E0,-4.921603754E0,8.227750761E0
1.950087654E1,3.081827635E-1,7.844930913E0,-4.792305443E0,9.198049202E0
1.951090054E1,3.292995442E-1,8.334648088E0,-3.891070586E0,9.204087530E0
1.952092554E1,3.958817889E-1,8.690038932E0,-3.062456979E0,9.222371809E0
1.953095054E1,3.099234796E-1,9.374767765E0,-2.903175316E0,9.818897603E0
1.954097554E1,-2.424238068E-1,1.008013785E1,-4.035607910E0,1.086066663E1
1.955100054E1,-1.511083954E0,1.040742873E1,-5.743457980E0,1.198270659E1
1.956102554E1,-2.957706449E0,1.017241393E1,-6.911503626E0,1.264890964E1
1.957105054E1,-3.872477025E0,9.766714232E0,-5.828309265E0,1.201473987E1
1.958107454E1,-4.135793226E0,9.383341538E0,-2.979863888E0,1.067855200E1
1.959109954E1,-3.535042396E0,9.181920746E0,3.770730503E-1,9.846135151E0
1.960112454E1,-2.502727875E0,9.193571908E0,3.188708597E0,1.004755063E1
1.961114954E1,-2.138805359E0,9.252441675E0,4.520637957E0,1.051752503E1
1.962117454E1,-1.923343063E0,9.425699353E0,5.479058583E0,1.107082381E1
1.963119954E1,-1.379064350E0,9.539390275E0,6.046508642E0,1.137813922E1
1.964122454E1,-9.807211390E-2,9.715058759E0,5.958767663E0,1.139731972E1
1.965124854E1,-3.926905248E-1,9.679041665E0,6.490527488E0,1.166040310E1
1.966127354E1,7.230580629E-1,9.798316094E0,6.451284485E0,1.175367529E1
1.967129854E1,1.460296939E0,9.651341066E0,7.088177247E0,1.206329591E1
1.968132354E1,1.890203238E0,9.418387409E0,7.545600834E0,1.221535843E1
1.969134854E1,1.560681061E0,9.154259908E0,7.634808880E0,1.202191775E1
1.970137354E1,9.203418034E-1,9.028334856E0,6.951960511E0,1.143186836E1
1.971139754E1,3.514623188E-1,9.164829919E0,5.605498774E0,1.074891854E1
1.972142254E1,4.945527490E-2,9.422172897E0,4.353305848E0,1.037935739E1
1.973144754E1,5.062476920E-1,9.746076484E0,3.250943145E0,1.028644374E1
1.974147254E1,-1.849985942E-3,9.944723357E0,2.985987969E0,1.038333522E1
1.975149754E1,-4.664176284E-1,1.008893090E1,2.758331890E0,1.046959726E1
1.976152254E1,-5.462363613E-1,1.019741546E1,2.557672991E0,1.052745683E1
1.977154754E1,-4.591501971E-1,1.021313745E1,2.554607588E0,1.053778988E1
1.978157154E1,-4.301344858E-1,1.011428676E1,2.420259915E0,1.040872089E1
1.979159654E1,-5.486319655E-1,9.957511218E0,2.174865722E0,1.020701071E1
1.980162154E1,-6.544907617E-1,9.725152808E0,2.016808467E0,9.953616010E0
1.981164654E1,-6.219041558E-1,9.304379568E0,1.776391717E0,9.492829476E0
1.982167154E1,-9.682615630E-1,8.229373648E0,-2.960410202E0,8.799099366E0
1.983169654E1,-1.842929815E0,4.633775148E0,-1.460365030E1,1.543161899E1
1.984172054E1,-2.583414773E0,-2.563735676E0,-2.500672169E1,2.527019791E1
1.985174554E1,-3.832846352E0,-3.443298998E1,-8.596758885E1,9.268628725E1
1.986177054E1,-4.320324920E0,-3.453667982E1,-8.581040634E1,9.260061175E1
1.987179554E1,-4.704905941E0,-3.458324471E1,-8.581243649E1,9.263860541E1
1.988182054E1,-4.842677452E0,-3.460724870E1,-8.580597181E1,9.264868043E1
1.989184554E1,-4.817597867E0,-3.462736780E1,-8.575227098E1,9.260516092E1
1.990187054E1,2.528129057E0,-7.759794869E0,1.500490729E1,1.708078147E1
1.991189454E1,6.249630535E-1,1.736038327E-3,1.010419564E1,1.012350489E1
1.992191954E1,-5.921788117E0,8.251941562E-2,-4.026551158E0,7.161529040E0
1.993194454E1,-8.029042193E0,-1.327108155E1,-4.206149673E1,4.483030929E1
1.994196954E1,-8.037122460E0,-1.324487784E1,-4.212213002E1,4.488090868E1
1.995199454E1,-8.024510016E0,-1.320864381E1,-4.220116566E1,4.494217858E1
1.996201954E1,-7.996965537E0,-1.314841047E1,-4.233523998E1,4.504558469E1
1.997204354E1,-7.963245814E0,-1.307188562E1,-4.251498339E1,4.518640603E1
1.998206854E1,-7.926952146E0,-1.299679100E1,-4.270172007E1,4.533420390E1
1.999209354E1,1.877788576E0,-9.319810955E0,-2.053310880E0,9.726307200E0
2.000211854E1,2.337751609E0,-9.278848870E0,8.480591083E-1,9.606316838E0
2.001214354E1,1.573046752E0,-9.285228183E0,3.096656173E-2,9.417584479E0
2.002216854E1,8.833352141E-1,-8.950362820E0,-1.708516653E0,9.154687590E0
2.003219254E1,7.011367053E-1,-8.295889819E0,-3.019333763E0,8.856057641E0
2.004221754E1,5.150637583E-1,-7.369674488E0,-3.420428199E0,8.141051639E0
2.005224254E1,-3.098286085E-2,-5.909323023E0,-3.520559428E0,6.878618845E0
2.006226754E1,-1.124298240E-1,-3.964205221E0,-3.145293313E0,5.061663119E0
2.007229254E1,2.569405795E-1,-1.823148977E0,-2.562737557E0,3.155552953E0
2.008231754E1,3.660861321E-2,2.865615141E-1,-2.287082415E0,2.305255662E0
2.009234254E1,3.370414039E-1,2.661758400E0,-1.681628962E0,3.166453956E0
2.010236654E1,5.779923337E-1,4.876947983E0,-1.053993220E0,5.022907372E0
2.011239154E1,8.088108426E-1,6.778673013E0,-6.784020730E-1,6.860379885E0
2.012241654E1,1.140338615E0,8.271537336E0,-2.823550272E-1,8.354545255E0
2.013244154E1,1.343442089E0,9.469098557E0,-2.285558192E-1,9.566655731E0
2.014246654E1,1.146056899E0,1.023120652E1,-7.825047310E-1,1.032488968E1
2.015249154E1,8.065839306E-1,1.073377821E1,-1.616526940E0,1.088474766E1
2.016251654E1,3.897116607E-1,1.089535315E1,-1.808599935E0,1.105131799E1
2.017254054E1,1.125005753E-1,1.086727248E1,-1.517560623E0,1.097329749E1
2.018256554E1,1.174142099E-1,1.094315765E1,-1.755218510E0,1.108364910E1
2.019259054E1,-5.412250051E-1,1.085904311E1,-2.250795472E0,1.110305463E1
2.020261554E1,-1.711896051E0,1.049928264E1,-3.209149586E0,1.111144299E1
2.021264054E1,-2.757797455E0,9.950792767E0,-3.442313157E0,1.088454149E1
2.022266554E1,-3.499051030E0,9.583892264E0,-2.521231973E0,1.050956515E1
2.023268954E1,-3.709267496E0,9.365171900E0,-3.003317070E-1,1.007746542E1
2.024271454E1,-3.481375774E0,9.278156560E0,2.276302050E0,1.016787674E1
2.025273954E1,-3.167169501E0,9.225819302E0,3.937327617E0,1.051899488E1
2.026276454E1,-2.808980765E0,9.138993412E0,5.167479172E0,1.086804557E1
2.027278954E1,-2.084416605E0,9.170688245E0,5.970349828E0,1.113963162E1
2.028281446E1,-8.377987066E-1,9.406281919E0,6.324356051E0,1.136562914E1
2.029283846E1,-2.630963454E-1,9.490552576E0,7.491983621E0,1.209419805E1
2.030286346E1,3.054157148E-1,9.293250563E0,8.230240206E0,1.241751338E1
2.031288846E1,9.505854300E-1,9.164557439E0,7.804332526E0,1.207478082E1
2.032291346E1,1.855408504E0,9.276853216E0,6.334917877E0,1.138568095E1
2.033293846E1,1.767936350E0,9.308498932E0,5.689156643E0,1.105170822E1
2.034296346E1,1.144141132E0,9.293575668E0,5.285810444E0,1.075264617E1
2.035298846E1,7.389548150E-1,9.382029423E0,4.617243607E0,1.048272240E1
2.036301246E1,2.697790550E-1,9.564637967E0,4.352907360E0,1.051203513E1
2.037303746E1,-2.297713823E-1,9.788589835E0,4.416840816E0,1.074140441E1
2.038306246E1,-3.327777605E-1,1.000894333E1,4.038027780E0,1.079793295E1
2.039308746E1,-3.800480405E-1,1.022202522E1,3.852084568E0,1.093036100E1
2.040311246E1,-6.167021804E-1,1.017299047E1,4.014425787E0,1.095379711E1
2.041313746E1,-7.047688495E-1,9.909833021E0,3.583603815E0,1.056142537E1
2.042316246E1,-9.955322459E-1,9.456542830E0,3.129910751E0,1.001067570E1
2.043318646E1,-1.340033016E0,8.793681414E0,2.943355920E0,9.369517883E0
2.044321146E1,-1.711229761E0,7.725185199E0,-1.126311144E-1,7.913247085E0
2.045323646E1,-2.222886858E0,-2.296056576E0,-4.416372512E1,4.427920187E1
2.046326146E1,-1.381132071E0,-3.767000155E1,-1.289275126E2,1.343251281E2
2.047328646E1,-1.879839925E0,-3.768148314E1,-1.290255494E2,1.344284953E2
2.048331146E1,-2.240842634E0,-3.770249102E1,-1.291093470E2,1.345203430E2
2.049333546E1,-2.367182838E0,-3.774141710E1,-1.290712699E2,1.344968804E2
2.050336046E1,-2.390549920E0,-3.779942850E1,-1.289460179E2,1.343934040E2
2.051338546E1,4.258281577E-1,-3.434110683E0,1.313403451E1,1.358224239E1
2.052341046E1,-1.369523156E-1,1.191525140E0,1.104674809E1,1.111166646E1
2.053343546E1,4.586184660E-1,1.057428020E0,8.427035265E0,8.505492829E0
2.054346046E1,-1.789212906E0,-7.174787375E0,6.687413179E0,9.969972504E0
2.055348446E1,-4.309149137E0,-1.603508963E1,3.369731085E0,1.694248958E1
2.056350946E1,-4.214280109E0,-1.583731691E1,2.920857588E0,1.664668654E1
2.057353446E1,-4.244270186E0,-1.571982179E1,2.583444886E0,1.648638268E1
2.058355946E1,-4.297121999E0,-1.566802832E1,2.403562606E0,1.642344307E1
2.059358446E1,-4.336873417E0,-1.564187256E1,2.301486300E0,1.639431265E1
2.060360946E1,-4.348916928E0,-1.561915028E1,2.220345658E0,1.636462247E1
2.061363446E1,-4.324881655E0,-1.558782324E1,2.124891324E0,1.631563660E1
2.062365846E1,1.812096131E0,-8.597030196E0,1.509374521E0,8.914641441E0
2.063368346E1,7.362258464E-1,-6.132781971E0,-1.081554655E0,6.270789716E0
2.064370846E1,2.586719035E-1,-5.506920565E0,-3.050475449E0,6.300673435E0
2.065373346E1,4.966646902E-1,-5.336358454E0,-3.599786861E0,6.456149225E0
2.066375846E1,2.592742398E-1,-3.482810973E0,-3.752594486E0,5.126320394E0
2.067378346E1,-2.476067787E-1,-4.117504013E-1,-3.573705940E0,3.605859351E0
