"Time (s)","Linear Acceleration x (m/s^2)","Linear Acceleration y (m/s^2)","Linear Acceleration z (m/s^2)","Absolute acceleration (m/s^2)"
4.001382458E0,8.474345525E-1,1.046645755E1,3.020931807E0,1.092661466E1
4.011407458E0,6.829997387E-1,1.047740353E1,2.888388877E0,1.088968612E1
4.021432458E0,4.178489010E-1,1.043681216E1,2.734041095E0,1.079706564E1
4.031457458E0,1.627120414E-1,1.035967803E1,2.606148455E0,1.068369851E1
4.041482458E0,-1.134781202E-1,1.021896596E1,2.472370008E0,1.051440707E1
4.051507458E0,-4.450383076E-1,9.951665171E0,2.343475156E0,1.023355142E1
4.061532458E0,-6.968007756E-1,9.602775262E0,2.161361578E0,9.867639430E0
4.071557458E0,-1.578786087E0,9.462280118E0,-1.832088054E0,9.766465952E0
4.081582458E0,-5.233581360E0,8.812794208E0,-9.383128699E0,1.389600014E1
4.091607458E0,-4.363896032E0,6.706639994E0,-5.720777800E0,9.836153070E0
4.101631458E0,-4.154097935E0,1.816694820E0,-6.794024878E0,8.167966929E0
4.111656458E0,-1.259200580E1,-3.735883846E1,-8.200616106E1,9.099039440E1
4.121681458E0,-1.282071146E1,-3.738094561E1,-8.197330439E1,9.100180421E1
4.131706458E0,-1.284916284E1,-3.739346099E1,-8.194784795E1,9.098803050E1
4.141731458E0,-1.290482833E1,-3.739253713E1,-8.195676378E1,9.100355794E1
4.151756458E0,-1.303989317E1,-3.736781510E1,-8.203387218E1,9.108209816E1
4.161781458E0,-1.322403485E1,-3.732825050E1,-8.216388619E1,9.120952570E1
4.171806458E0,7.781207373E0,-5.224020578E0,1.370604540E1,1.660401336E1
4.181831458E0,2.952559437E0,-4.194264506E0,9.600231138E0,1.088457164E1
4.191856458E0,-4.124282690E0,-8.049971716E0,7.051239216E0,1.146872821E1
4.201881333E0,-5.696951566E0,-1.579554674E1,1.145201744E0,1.683050923E1
4.211905333E0,-5.366838820E0,-1.577307706E1,1.139691328E0,1.670005435E1
4.221930333E0,-5.156960616E0,-1.572367511E1,1.025316574E0,1.657948961E1
4.231955333E0,-5.249276456E0,-1.563185628E1,7.558739528E-1,1.650700395E1
4.241980333E0,-5.471732606E0,-1.554210035E1,4.410844204E-1,1.648306089E1
4.252005333E0,-5.703440806E0,-1.547376745E1,1.422343978E-1,1.649202676E1
4.262030333E0,-5.903255367E0,-1.542489525E1,-1.257867649E-1,1.651640517E1
4.272055333E0,1.016692735E0,-7.173781654E0,-1.663412693E0,7.433959182E0
4.282080333E0,-1.251948367E0,-4.777563443E0,-1.339394646E0,5.117271264E0
4.292105333E0,-8.488735523E-1,-3.148748433E0,-3.478755637E-1,3.279667729E0
4.302130333E0,-2.538632264E-1,-3.890398157E-1,9.719841197E-2,4.746009347E-1
4.312154333E0,-1.540586373E-1,1.992916451E0,-6.491007252E-1,2.101614093E0
4.322179333E0,-5.418614745E-3,3.660619538E0,-1.420986840E0,3.926750357E0
4.332204333E0,2.309028185E-1,5.053240950E0,-1.843243518E0,5.383874709E0
4.342229333E0,6.843654290E-2,6.282345561E0,-1.970173998E0,6.584385688E0
4.352254333E0,-4.277273333E-1,7.556719900E0,-1.898891762E0,7.803381077E0
4.362279333E0,-9.145717710E-1,9.141909419E0,-3.001167634E0,9.665296504E0
4.372304333E0,-1.475789137E0,1.059826548E1,-4.106206023E0,1.146133119E1
4.382329333E0,-1.629481300E0,1.117143061E1,-3.795115439E0,1.191045643E1
4.392354333E0,-1.348566296E0,1.105093704E1,-2.575973314E0,1.142705032E1
4.402379333E0,-1.252738910E0,1.075171981E1,-1.952283565E0,1.099910200E1
4.412403333E0,-1.570809900E0,1.055987266E1,-2.035171501E0,1.086831530E1
4.422428333E0,-1.544905565E0,1.027057816E1,-2.388371393E0,1.065719601E1
4.432453333E0,-2.307467709E0,1.032987594E1,-2.597621168E0,1.089854944E1
4.442478333E0,-2.145666189E0,1.022709593E1,-9.627653995E-1,1.049401218E1
4.452503333E0,-1.733001576E0,1.002032902E1,1.245337358E0,1.024505507E1
4.462528333E0,-1.318690971E0,9.904699166E0,2.841010935E0,1.038813528E1
4.472553333E0,-9.004955495E-1,9.903953061E0,3.890331498E0,1.067866366E1
4.482578333E0,-7.336574569E-1,9.967523990E0,4.234623742E0,1.085457627E1
4.492603333E0,-5.339553080E-1,1.002954891E1,4.315841860E0,1.093176338E1
4.502628333E0,-5.179628809E-1,1.003304321E1,4.752187404E0,1.111366397E1
4.512653333E0,-4.330526850E-1,1.004781912E1,4.970740246E0,1.121848753E1
4.522678333E0,-1.780269590E-1,1.014321645E1,4.925436019E0,1.127725381E1
4.532702333E0,1.145854732E-1,1.016397874E1,4.721152723E0,1.120753660E1
4.542727333E0,2.098738921E-1,1.014013029E1,4.496955564E0,1.109454364E1
4.552752333E0,1.569722318E-1,1.006445211E1,4.378318190E0,1.097668014E1
4.562777333E0,6.001947597E-2,1.004370035E1,4.302556694E0,1.092664235E1
4.572802333E0,-1.023394302E-1,1.007787732E1,4.234717882E0,1.093192207E1
4.582827333E0,-3.774469797E-1,1.011635434E1,4.112362848E0,1.092678450E1
4.592852333E0,-7.561550577E-1,1.013914211E1,3.915003240E0,1.089500911E1
4.602877333E0,-1.150747243E0,1.006863170E1,3.583944415E0,1.074924282E1
4.612902333E0,-1.384529888E0,9.815552516E0,3.211834627E0,1.042007082E1
4.622927333E0,-1.509461498E0,9.343557082E0,2.897687119E0,9.898339437E0
4.632951333E0,-1.678745846E0,9.082050303E0,2.664078575E0,9.612447137E0
4.642976333E0,-1.681481905E0,9.017497627E0,2.592137065E0,9.532146631E0
4.653001333E0,-1.504042006E0,8.924518712E0,2.496308509E0,9.388329604E0
4.663026333E0,-2.839842954E0,8.630064626E0,-5.685941259E0,1.071786599E1
4.673051333E0,-1.085583767E1,2.618237574E0,-1.855707443E1,2.165800985E1
4.683076333E0,-1.002933374E1,-1.835362641E1,-1.863700470E1,2.801394441E1
4.693101333E0,-1.016838403E1,-1.839583629E1,-1.856170191E1,2.804174753E1
4.703126333E0,-1.041281519E1,-1.847037191E1,-1.844752684E1,2.810502812E1
4.713151333E0,-1.066298831E1,-1.857745314E1,-1.827510999E1,2.815671732E1
4.723176333E0,-1.089319787E1,-1.868620902E1,-1.811666448E1,2.821435272E1
4.733201333E0,-1.109274229E1,-1.877713790E1,-1.800588080E1,2.828147065E1
4.743225333E0,-1.123264394E1,-1.883525805E1,-1.795005977E1,2.833979325E1
4.753250333E0,4.694417206E0,-7.934867522E0,9.837802341E0,1.348265665E1
4.763275333E0,1.514755860E0,-7.999452943E0,9.733179281E0,1.268938579E1
4.773300333E0,1.418824101E0,-1.229268333E1,6.847798796E0,1.414268269E1
4.783325333E0,3.543039048E0,-1.759044548E1,2.571779691E0,1.812707778E1
4.793350333E0,3.621676205E0,-1.745259152E1,2.239761045E0,1.796457678E1
4.803375333E0,3.615924007E0,-1.733428949E1,1.878207529E0,1.780674485E1
4.813400333E0,3.601954424E0,-1.725970591E1,1.615392434E0,1.770539513E1
4.823425333E0,3.594493377E0,-1.721511972E1,1.444138013E0,1.764557351E1
4.833450333E0,4.038961873E0,-7.892096309E0,-1.465608696E0,8.985900401E0
4.843474333E0,3.623691448E0,-4.250411809E0,1.033979516E0,5.680339241E0
4.853499333E0,1.908962713E0,-1.851819044E0,1.594263228E0,3.100814031E0
4.863524333E0,2.219003722E-2,5.986718524E-1,1.225123826E0,1.363755394E0
4.873549333E0,-4.626416427E-1,3.254225187E0,5.323353370E-1,3.329774732E0
4.883574333E0,-1.204466344E0,5.598142977E0,-3.297610357E-2,5.726345378E0
4.893599333E0,-1.513207517E0,7.485873865E0,-6.537757203E-1,7.665215405E0
4.903624333E0,-1.404861827E0,9.094532354E0,-1.139354382E0,9.272663258E0
4.913649333E0,-1.736861615E0,1.027172655E1,-1.544750322E0,1.053144379E1
4.923674333E0,-1.745294908E0,1.081571875E1,-1.942201796E0,1.112645381E1
4.933699333E0,-1.754556898E0,1.103833161E1,-2.275322495E0,1.140615304E1
4.943724333E0,-1.742455354E0,1.107105497E1,-2.361351264E0,1.145340074E1
4.953748333E0,-1.826701452E0,1.094615610E1,-2.226605687E0,1.131869889E1
4.963773333E0,-2.040549770E0,1.083370128E1,-2.073979325E0,1.121758963E1
4.973798333E0,-2.097806583E0,1.090247740E1,-2.561080456E0,1.139403085E1
4.983823333E0,-2.312892902E0,1.105221758E1,-3.489034749E0,1.181839035E1
4.993848333E0,-3.001605882E0,1.105971955E1,-4.772766387E0,1.241395720E1
5.003873333E0,-2.998565623E0,1.103853977E1,-4.627557803E0,1.233916720E1
5.013898333E0,-3.040371460E0,1.091680308E1,-3.114727578E0,1.175253062E1
5.023923333E0,-3.000764468E0,1.059071088E1,-1.237912710E0,1.107701098E1
5.033948333E0,-2.769144269E0,1.022314672E1,6.900464375E-1,1.061400268E1
5.043973333E0,-2.408891466E0,9.971679021E0,2.373727626E0,1.052956426E1
5.053998333E0,-2.189339774E0,9.901803625E0,3.149072661E0,1.061864315E1
5.064022333E0,-2.038104903E0,9.901652766E0,3.407411127E0,1.066803870E1
5.074047333E0,-1.847725555E0,9.914648788E0,3.434898888E0,1.065424238E1
5.084072333E0,-1.451888351E0,9.908919686E0,3.165304824E0,1.050303879E1
5.094097333E0,-1.366717662E0,9.886467547E0,3.316148662E0,1.051698625E1
5.104122333E0,-1.453129276E0,9.756413777E0,3.429424432E0,1.044318660E1
5.114147333E0,-1.488827405E0,9.443844432E0,3.319382465E0,1.012033125E1
5.124172333E0,-1.662622588E0,9.143365375E0,3.212854089E0,9.832999322E0
5.134197333E0,-1.749966833E0,9.007514091E0,3.105555928E0,9.687216919E0
5.144222333E0,-1.584183798E0,8.913523023E0,3.189038672E0,9.598463347E0
5.154247333E0,-1.423374550E0,8.775756190E0,3.450613572E0,9.536594038E0
5.164272333E0,-1.299873754E0,8.551373967E0,3.728307199E0,9.418914113E0
5.174296333E0,-1.243345066E0,8.248078891E0,4.121099758E0,9.303772115E0
5.184321333E0,-1.107067519E0,7.882788126E0,4.618072450E0,9.202746345E0
5.194346333E0,-8.495725138E-1,7.366455011E0,5.209736999E0,9.062438551E0
5.204371708E0,-3.178906032E-1,3.972150418E0,4.831058450E0,6.262440349E0
5.214396708E0,2.919349591E-1,-1.433023684E1,-8.905271432E-1,1.436084790E1
5.224421708E0,3.499778423E0,-4.540945805E1,-1.352302053E1,4.750936132E1
5.234446708E0,3.709879407E0,-4.544058394E1,-1.330330322E1,4.749302845E1
5.244471708E0,3.607956591E0,-4.537416893E1,-1.356132681E1,4.749465382E1
5.254496708E0,3.473077990E0,-4.534218700E1,-1.375677350E1,4.751026215E1
5.264521708E0,3.342596496E0,-4.535035907E1,-1.382917490E1,4.752971804E1
5.274545708E0,4.608380983E0,-7.440984206E0,-2.027592194E-1,8.754800542E0
5.284570708E0,5.387570708E0,-8.987376280E0,2.757812365E0,1.083533016E1
5.294595708E0,6.220891324E0,-1.297179766E1,1.150139425E0,1.443225014E1
5.304620708E0,6.210920652E0,-1.294126350E1,1.025876591E0,1.439111737E1
5.314645708E0,6.218392224E0,-1.290260171E1,8.797062859E-1,1.434989254E1
5.324670708E0,6.229973220E0,-1.286484741E1,7.313369894E-1,1.431264193E1
5.334695708E0,2.164463964E0,-9.414200218E0,-3.892378024E0,1.041454160E1
5.344720708E0,1.057368086E-1,-7.716567573E0,-2.698196493E0,8.175381318E0
5.354745708E0,-1.316998641E0,-5.783966321E0,-2.479771414E0,6.429464837E0
5.364770708E0,-2.553833417E0,-2.815012168E0,-3.010552415E0,4.848688943E0
5.374795708E0,-3.607179788E0,1.897047257E-1,-3.826082293E0,5.261809538E0
5.384819708E0,-4.195345656E0,2.825278124E0,-4.219477115E0,6.586889157E0
5.394844708E0,-4.234150118E0,5.194395075E0,-4.058933623E0,7.834839473E0
5.404869708E0,-3.658316320E0,7.263150498E0,-3.311813829E0,8.780930719E0
5.414894708E0,-2.891268631E0,8.744704551E0,-2.393529661E0,9.516211232E0
5.424919708E0,-2.084831904E0,9.693607079E0,-1.458564702E0,1.002197352E1
5.434944708E0,-1.317758779E0,1.025316749E1,-7.430315669E-1,1.036417038E1
5.444969708E0,-7.594881168E-1,1.057667288E1,-3.037170987E-1,1.060825507E1
5.454994708E0,-4.397351754E-1,1.069816633E1,1.982372752E-1,1.070903487E1
5.465019708E0,-2.807811029E-1,1.072677909E1,4.703805788E-1,1.074075815E1
5.475044708E0,-2.415728907E-1,1.073242634E1,3.810979812E-1,1.074190710E1
5.485069708E0,-2.170843130E-1,1.076374636E1,-3.002209023E-2,1.076597709E1
5.495093708E0,-5.329050019E-2,1.098812742E1,-9.549861176E-1,1.102967735E1
5.505118708E0,-1.068096265E-2,1.110038109E1,-1.152723894E0,1.116007826E1
5.515143708E0,-1.692511654E-1,1.089017135E1,5.024268289E-1,1.090306887E1
5.525168708E0,-1.993206181E-1,1.069818972E1,2.026323348E0,1.089022398E1
5.535193708E0,-2.158485040E-1,1.066145751E1,2.751145370E0,1.101281379E1
5.545218708E0,-2.001668563E-1,1.065535653E1,3.083576829E0,1.109437405E1
5.555243708E0,-1.451609293E-1,1.065045773E1,3.198907018E0,1.112143550E1
5.565268708E0,-1.207628372E-1,1.064421056E1,3.466760658E0,1.119518788E1
5.575293708E0,-1.248610045E-1,1.067084814E1,3.665293218E0,1.128348194E1
5.585318708E0,-1.856730705E-1,1.067004122E1,3.832418336E0,1.133894547E1
5.595343708E0,-2.762837170E-1,1.064110218E1,4.022378877E0,1.137931985E1
5.605367708E0,-5.080041955E-1,1.055605794E1,4.207566336E0,1.137506228E1
5.615392708E0,-9.432280979E-1,1.036050600E1,4.350651504E0,1.127643260E1
5.625417708E0,-1.417650418E0,9.938811822E0,4.390996123E0,1.095767129E1
5.635442708E0,-1.603031420E0,9.418242399E0,4.262986246E0,1.046164668E1
5.645467708E0,-1.707510785E0,9.040566646E0,4.102911701E0,1.007379386E1
5.655492708E0,-1.783816219E0,8.861840653E0,3.924090106E0,9.854577780E0
5.665517708E0,-1.869305143E0,8.783244134E0,3.677420343E0,9.703767290E0
5.675542708E0,-2.007303525E0,8.670062504E0,2.882665915E0,9.354625276E0
5.685567708E0,-2.230828108E0,8.389611915E0,-5.594990158E-1,8.699150607E0
5.695592708E0,-2.085724189E0,7.420113155E0,1.380015984E-1,7.708914908E0
5.705617708E0,-1.141637720E0,6.032891647E0,1.485146583E0,6.317022928E0
5.715641708E0,-1.111265235E0,2.351594599E0,-2.443419859E0,3.568642345E0
5.725666708E0,-3.740707097E0,-2.303384306E1,-3.691545754E0,2.362579789E1
5.735691708E0,1.158406657E0,-6.018843126E1,-8.933309416E0,6.085879707E1
5.745716708E0,1.244432209E0,-6.010245380E1,-9.160045727E0,6.080920985E1
5.755741708E0,1.141997104E0,-6.004202166E1,-9.370014564E0,6.077948417E1
5.765766708E0,9.628589550E-1,-6.004368227E1,-9.416774747E0,6.078524923E1
5.775791708E0,7.321088950E-1,-6.007611327E1,-9.395675654E0,6.081080570E1
5.785816708E0,3.044316284E0,-7.235969716E0,1.233585040E0,7.946625159E0
5.795841708E0,1.089604956E0,-6.223296869E0,3.854328145E0,7.400845109E0
5.805866708E0,-1.180572575E0,-7.251272464E0,2.837836774E0,7.875787040E0
5.815890708E0,-1.466523201E0,-9.412640766E0,8.066909346E-1,9.560295328E0
5.825915708E0,-2.640507571E-1,-1.020166054E1,-5.343504336E-1,1.021905724E1
5.835940708E0,-2.037813127E-1,-8.160422112E0,-1.559475657E0,8.310594455E0
5.845965708E0,-7.870214859E-1,-5.137593468E0,-2.324704132E0,5.693726263E0
5.855990708E0,-5.337573798E-1,-2.663286862E0,-2.547856685E0,3.724186829E0
5.866015708E0,9.839767590E-2,-6.031730390E-1,-2.532308646E0,2.605011881E0
5.876040708E0,3.352571261E-1,1.373870561E0,-2.360526514E0,2.751727290E0
5.886065708E0,3.278906576E-1,3.241648411E0,-2.035034530E0,3.841505205E0
5.896090708E0,3.398449977E-1,4.923652033E0,-1.585979770E0,5.183934394E0
5.906115708E0,1.522587182E-1,6.631383405E0,-1.178529557E0,6.737014212E0
5.916140708E0,-4.309373085E-1,8.140046319E0,-7.977730536E-1,8.190390888E0
5.926164708E0,-9.386827648E-1,9.390123723E0,-6.709424146E-1,9.460745879E0
5.936189708E0,-9.424341922E-1,1.025633902E1,-7.867778032E-1,1.032955428E1
5.946214708E0,-8.538484365E-1,1.066634812E1,-4.350582799E-1,1.070930974E1
5.956239708E0,-9.323632403E-1,1.074536739E1,2.091293223E-1,1.078776885E1
5.966264708E0,-1.105991485E0,1.063414634E1,7.157753558E-1,1.071543839E1
5.976289708E0,-1.252272741E0,1.055851377E1,6.505658913E-1,1.065240048E1
5.986314708E0,-1.440654680E0,1.057826099E1,2.457048257E-1,1.067873880E1
5.996339708E0,-1.482863976E0,1.056501354E1,2.961043163E-1,1.067267887E1
6.006364708E0,-1.530346875E0,1.054468160E1,2.114926207E-1,1.065725108E1
6.016389708E0,-1.582521873E0,1.052352403E1,4.447883391E-1,1.065113938E1
6.026413708E0,-1.606279110E0,1.041784613E1,1.107482671E0,1.059897016E1
6.036438708E0,-1.612134512E0,1.039125767E1,1.576318123E0,1.063306130E1
6.046463708E0,-1.595495237E0,1.039264463E1,1.911699357E0,1.068677978E1
6.056488708E0,-1.549394034E0,1.041927519E1,2.224174707E0,1.076609820E1
6.066513708E0,-1.501400673E0,1.037775411E1,2.554622791E0,1.079250120E1
6.076538708E0,-1.491922044E0,1.030740860E1,2.777459887E0,1.077881194E1
6.086563708E0,-1.543177713E0,1.023274083E1,2.852962059E0,1.073451325E1
6.096588708E0,-1.596362086E0,1.013880063E1,2.928170409E0,1.067322969E1
6.106613708E0,-1.664239928E0,1.002399874E1,3.014418594E0,1.059891337E1
6.116638708E0,-1.757566752E0,9.938690200E0,3.029518736E0,1.053776957E1
6.126663708E0,-1.836862159E0,9.848933101E0,3.079500735E0,1.048135824E1
6.136687708E0,-1.926138032E0,9.803171037E0,3.045056834E0,1.044435451E1
6.146712708E0,-1.925586201E0,9.780497289E0,3.086170069E0,1.043505894E1
6.156737708E0,-1.879021753E0,9.676350192E0,3.167159853E0,1.035342346E1
6.166762708E0,-1.916433409E0,9.241750626E0,2.806243975E0,9.846708937E0
6.176787708E0,-2.001944114E0,8.940529557E0,2.538546748E0,9.507106216E0
6.186812708E0,-2.645757786E0,8.887470168E0,-1.757864814E0,9.438074431E0
6.196838208E0,-5.143164110E0,7.248904341E0,-1.045084899E1,1.371929283E1
6.206863208E0,-3.620033138E-1,2.765175764E0,-3.781833196E0,4.698883455E0
6.216888208E0,-3.457636955E0,-7.360752221E0,-6.255592210E0,1.026003706E1
6.226913208E0,-6.213470038E0,-2.395377615E1,-1.461442906E1,2.873973101E1
6.236937208E0,-6.243492567E0,-2.394136134E1,-1.467637914E1,2.876744839E1
6.246962208E0,-6.404361164E0,-2.402646873E1,-1.447460459E1,2.877153489E1
6.256987208E0,-6.726816981E0,-2.416117689E1,-1.424853135E1,2.884498537E1
6.267012208E0,-7.075423885E0,-2.429609788E1,-1.409542318E1,2.896623811E1
6.277037208E0,-7.279468322E0,-2.438150699E1,-1.401148289E1,2.904772272E1
6.287062208E0,-1.482841026E0,-1.005948666E1,4.094255776E0,1.096152452E1
6.297087208E0,-2.951057288E0,-5.428562613E0,1.771142671E0,6.427672792E0
6.307112208E0,2.816928300E0,-5.696231773E0,-2.645554303E0,6.883392989E0
6.317137208E0,6.589645979E0,-9.819802272E0,-4.610547084E0,1.269287577E1
6.327162208E0,8.107214788E0,-1.085462379E1,-3.569069391E0,1.401028356E1
6.337186208E0,5.801222624E0,-8.426673322E0,-2.193158444E0,1.046293225E1
6.347211208E0,2.563480738E0,-4.953217894E0,-1.492319216E0,5.773458032E0
6.357236208E0,1.167112723E0,-1.671461093E0,-1.499216884E0,2.530530687E0
6.367261208E0,5.670542032E-2,7.912306041E-1,-2.588990386E0,2.707791091E0
6.377286208E0,-5.057066783E-1,2.757239923E0,-3.663417431E0,4.612888305E0
6.387311208E0,-5.832945523E-1,4.749259411E0,-3.966640002E0,6.215298093E0
6.397336208E0,-4.882848993E-1,6.152255538E0,-3.553046558E0,7.121292733E0
6.407361208E0,-8.517634656E-1,7.585623856E0,-2.869025238E0,8.154661005E0
6.417386208E0,-1.203380516E0,9.093096862E0,-2.201990225E0,9.432989779E0
6.427411208E0,-9.336184913E-1,1.006202318E1,-1.390830556E0,1.020050801E1
6.437436208E0,-7.684964834E-1,1.079493775E1,-6.535048480E-1,1.084197106E1
6.447460208E0,-6.230524027E-1,1.111502369E1,7.655028552E-3,1.113247522E1
6.457485208E0,-5.440382467E-1,1.111569144E1,4.133149700E-1,1.113666930E1
6.467510208E0,-6.308555120E-1,1.101391481E1,2.584153569E-1,1.103499327E1
6.477535208E0,-8.179134956E-1,1.089946725E1,-4.474334733E-1,1.093926714E1
6.487560208E0,-1.094783250E0,1.094263491E1,-2.000189803E0,1.117768171E1
6.497585208E0,-1.757781345E0,1.092962018E1,-3.470497029E0,1.160132501E1
6.507610208E0,-2.624059646E0,1.060575693E1,-3.234541120E0,1.139429793E1
6.517635208E0,-2.903505099E0,1.011460485E1,-8.727986777E-1,1.055923059E1
6.527660208E0,-2.704048094E0,9.797164777E0,2.062966972E0,1.037073510E1
6.537685208E0,-2.513601065E0,9.732503343E0,4.108550756E0,1.085909761E1
6.547710208E0,-2.286399753E0,9.849956363E0,5.139883822E0,1.134317724E1
6.557734208E0,-1.780479505E0,9.986211691E0,5.510768033E0,1.154396360E1
6.567759208E0,-1.084295391E0,1.006680036E1,5.462460676E0,1.150454878E1
6.577784208E0,-5.547000597E-1,1.008115644E1,5.462672346E0,1.147946848E1
6.587809208E0,-3.557896239E-1,1.009694860E1,5.254938315E0,1.138812250E1
6.597834208E0,-1.405009907E-1,1.009796368E1,4.977747549E0,1.125906664E1
6.607859208E0,-1.771174246E-1,1.004790917E1,5.075364475E0,1.125838238E1
6.617884208E0,-7.454536298E-1,9.966885474E0,4.616354831E0,1.100932510E1
6.627909208E0,-1.524032467E0,9.765481639E0,4.054377472E0,1.068294357E1
6.637934208E0,-2.071590007E0,9.570472904E0,3.432595377E0,1.037632631E1
6.647959208E0,-2.341456697E0,9.412673510E0,3.125879680E0,1.019077847E1
6.657983208E0,-2.064343991E0,9.293121339E0,2.656462869E0,9.883340291E0
6.668008208E0,-1.637096129E0,9.233991956E0,2.712031006E0,9.762264253E0
6.678033208E0,-1.383382080E0,8.879544852E0,2.621394778E0,9.361184399E0
6.688058208E0,-1.208274490E0,8.365860525E0,2.807726537E0,8.906788303E0
6.698083208E0,-7.624864228E-1,8.017714967E0,3.723577094E0,8.873002040E0
6.708108208E0,-2.220718418E-1,7.288851349E0,-4.863788824E0,8.765449881E0
6.718133208E0,4.007308848E-1,-4.181559091E0,-2.331718510E1,2.369255458E1
6.728158208E0,-4.864382316E0,-4.122156057E1,-3.546095622E1,5.459266148E1
6.738183208E0,-4.934878103E0,-4.122574250E1,-3.549791764E1,5.462615695E1
6.748208208E0,-5.086339114E0,-4.134759848E1,-3.520359921E1,5.454161844E1
6.758232208E0,-5.244547228E0,-4.149458344E1,-3.488237423E1,5.446178259E1
6.768257208E0,-5.347775143E0,-4.160710258E1,-3.465342299E1,5.441148233E1
6.778282208E0,4.102573732E0,-6.342961307E0,8.934640242E0,1.170008827E1
6.788307208E0,1.542799544E0,2.523328493E0,1.168774501E0,3.180165240E0
6.798332208E0,-3.302607973E0,-4.852311324E0,-9.051216180E0,1.078780140E1
6.808357208E0,3.262013093E0,-1.763130115E1,-6.109362702E0,1.894275118E1
6.818382208E0,3.339793048E0,-1.756307116E1,-6.297447749E0,1.895451224E1
6.828407208E0,3.400802604E0,-1.750419437E1,-6.481460211E0,1.897291768E1
6.838432208E0,3.456460203E0,-1.744976732E1,-6.669977367E0,1.899816030E1
6.848457208E0,3.824377245E-1,-8.159222848E0,-2.325495260E0,8.492767764E0
6.858481208E0,-5.115689506E-1,-5.327211070E0,-4.910002001E-1,5.374194058E0
6.868506208E0,-7.000172558E-1,-3.144754200E0,1.933931494E-1,3.227522896E0
6.878531208E0,-8.532524590E-1,-9.948604739E-1,-8.280372186E-1,1.550300860E0
6.888556208E0,-4.922691920E-1,1.315718831E0,-7.353504451E-1,1.585618264E0
6.898581208E0,4.003534470E-1,2.976375439E0,-1.238756025E0,3.248632039E0
6.908606208E0,1.928693850E-1,4.979890553E0,-1.604217528E0,5.235458184E0
6.918631208E0,7.188961610E-2,6.799808359E0,-1.017248293E0,6.875853105E0
6.928656208E0,-1.022021668E-1,8.240037215E0,-4.508027852E-1,8.252992290E0
6.938681208E0,-5.344524676E-1,9.220124699E0,-9.569808953E-2,9.236097500E0
6.948706208E0,-1.073955906E0,9.886817211E0,5.588417888E-2,9.945132422E0
6.958731208E0,-1.559570967E0,1.025397207E1,-1.267419076E-1,1.037266929E1
6.968755208E0,-2.081680254E0,1.025569583E1,-6.652400637E-1,1.048595413E1
6.978780208E0,-2.671925538E0,1.024345176E1,-1.991415471E0,1.077187196E1
6.988805208E0,-3.035954474E0,1.036633801E1,-4.590106387E0,1.173656934E1
6.998830208E0,-3.676928300E0,1.045745517E1,-6.254014632E0,1.272756337E1
7.008855208E0,-3.898950879E0,1.019711608E1,-4.304248878E0,1.173497136E1
7.018880208E0,-3.208091532E0,9.781446877E0,-3.136564882E-1,1.029888026E1
7.028905208E0,-2.682062271E0,9.532777074E0,2.506920913E0,1.021528018E1
7.038930208E0,-2.661352895E0,9.453675941E0,3.433175129E0,1.040391655E1
7.048955208E0,-2.701223305E0,9.474987872E0,3.402104194E0,1.042335433E1
7.058980208E0,-2.581732821E0,9.550288900E0,3.563156101E0,1.051520061E1
7.069005208E0,-2.460418299E0,9.626618453E0,3.822419305E0,1.064595371E1
7.079029208E0,-2.368745506E0,9.677720779E0,3.969321242E0,1.072495902E1
7.089054208E0,-2.304106291E0,9.724341214E0,4.043636137E0,1.078066376E1
7.099079208E0,-2.231299247E0,9.764770617E0,4.159838439E0,1.084590694E1
7.109104208E0,-2.093738090E0,9.796533278E0,4.165052693E0,1.084912289E1
7.119129208E0,-2.064697894E0,9.822143497E0,4.115457779E0,1.084778655E1
7.129154208E0,-2.053969715E0,9.850241708E0,4.046041682E0,1.084511441E1
7.139179208E0,-2.055898857E0,9.885910892E0,3.852884760E0,1.080752864E1
7.149204208E0,-2.138736946E0,9.901256325E0,3.634180476E0,1.076180005E1
7.159229208E0,-2.237623888E0,9.859977322E0,3.321604114E0,1.064232904E1
7.169254208E0,-2.449043565E0,9.807446521E0,3.095377680E0,1.057190544E1
7.179279208E0,-2.567322651E0,9.760422628E0,2.723456465E0,1.045343057E1
7.189303208E0,-2.631558408E0,9.745639697E0,2.524058225E0,1.040545351E1
7.199327792E0,-2.660912600E0,9.601947296E0,2.501344131E0,1.027300201E1
7.209352792E0,-2.274834107E0,9.190868155E0,2.235024508E0,9.728425475E0
7.219377792E0,-2.519821040E0,8.801575155E0,2.432035915E0,9.472698770E0
7.229402792E0,-2.770610166E0,8.594370298E0,2.519217900E0,9.374750148E0
7.239427792E0,-3.804465429E0,7.605847036E0,1.987578674E0,8.733460673E0
7.249452792E0,-7.951969458E0,-1.666620768E0,-3.576537630E1,3.667660814E1
7.259477792E0,-6.704183578E0,-1.543264749E1,-4.555954906E1,4.856732642E1
7.269502792E0,-6.782120531E0,-1.542891463E1,-4.562593600E1,4.863922904E1
7.279527792E0,-6.919074601E0,-1.544154110E1,-4.569345497E1,4.872583106E1
7.289552792E0,-7.092766142E0,-1.548967421E1,-4.569378709E1,4.876637692E1
7.299576792E0,-7.379830517E0,-1.559599998E1,-4.563988980E1,4.879238316E1
7.309601792E0,-7.705088904E0,-1.573552624E1,-4.556309948E1,4.881568617E1
7.319626792E0,-7.918198280E0,-1.584138423E1,-4.549620734E1,4.882163660E1
7.329651792E0,-7.996072083E0,-1.583442839E1,-4.559965628E1,4.892846762E1
7.339676792E0,4.499745271E0,-9.270445837E0,-9.161323929E-1,1.034544209E1
7.349701792E0,4.112090660E0,-9.224211318E0,-1.241345757E1,1.600279016E1
7.359726792E0,7.298002242E0,-7.490042346E0,-1.129610143E1,1.539361811E1
7.369751792E0,1.054267717E1,-6.497947020E0,-7.880638690E0,1.467909478E1
7.379776792E0,7.777922992E0,-4.306971341E0,-6.033302121E0,1.074461831E1
7.389801792E0,5.108773127E0,-3.146165718E0,-3.842820532E0,7.124969560E0
7.399826792E0,2.947602168E0,-1.676517765E0,-3.604637711E0,4.948988117E0
7.409850792E0,1.474304675E0,1.516570689E0,-1.971293740E-1,2.124245965E0
7.419875792E0,1.945997808E0,3.907016528E0,-3.686950135E-1,4.380367751E0
7.429900792E0,1.021234632E0,4.999958197E0,-1.275460167E0,5.260161669E0
7.439925792E0,5.941613102E-1,6.377942859E0,-1.676026160E0,6.621196755E0
7.449950792E0,-1.376579283E0,7.871963761E0,-1.737176195E0,8.178053871E0
7.459975792E0,-2.657432045E0,9.215318288E0,-1.828684974E0,9.763612290E0
7.470000792E0,-3.339900929E0,9.968270094E0,-1.262091093E0,1.058840030E1
7.480025792E0,-3.093726426E0,1.009298653E1,-4.621615863E-1,1.056660369E1
7.490050792E0,-3.061747419E0,1.044047018E1,2.209909840E-1,1.088239642E1
7.500075792E0,-3.149354205E0,1.071259726E1,5.246272449E-1,1.117825593E1
7.510100792E0,-3.348258647E0,1.080102236E1,7.593969002E-1,1.133356094E1
7.520125792E0,-3.603249874E0,1.068315536E1,1.294715194E0,1.134854640E1
7.530149792E0,-3.636314709E0,1.045266046E1,2.066873789E0,1.125845738E1
7.540174792E0,-3.596414479E0,1.028909629E1,2.941877452E0,1.128956786E1
7.550199792E0,-3.425052469E0,1.014491682E1,3.512412210E0,1.126886690E1
7.560224792E0,-3.066857593E0,1.010705844E1,3.771009415E0,1.121511292E1
7.570249792E0,-2.680244664E0,1.011029312E1,3.633074767E0,1.107253226E1
7.580274792E0,-2.440332821E0,1.008389645E1,3.529339314E0,1.095885157E1
7.590299792E0,-2.325091802E0,1.003323617E1,3.573763535E0,1.090154419E1
7.600324792E0,-2.279863881E0,1.001980278E1,3.608379052E0,1.089103422E1
7.610349792E0,-2.295905425E0,1.003221291E1,3.622319399E0,1.091043882E1
7.620374792E0,-2.307354273E0,1.002683815E1,3.645354213E0,1.091558401E1
7.630399792E0,-2.326991270E0,1.001450169E1,3.656704243E0,1.091222335E1
7.640423792E0,-2.398030263E0,1.002259658E1,3.725858678E0,1.095833081E1
7.650448792E0,-2.463143394E0,9.983290422E0,3.792217559E0,1.095965679E1
7.660473792E0,-2.576373848E0,9.925281365E0,3.809425914E0,1.093895051E1
7.670498792E0,-2.736907985E0,9.834205134E0,3.692144217E0,1.085514555E1
7.680523792E0,-2.869948221E0,9.530743412E0,3.364688738E0,1.050679795E1
7.690548792E0,-2.852233496E0,9.040998171E0,2.865751674E0,9.903909152E0
7.700573792E0,-2.895219302E0,8.927260471E0,2.525449862E0,9.718856483E0
7.710598792E0,-3.029951430E0,8.862300829E0,2.372307045E0,9.661719431E0
7.720623792E0,-2.953795246E0,8.810721955E0,2.283825516E0,9.569199899E0
7.730648792E0,-2.807992585E0,8.729288952E0,1.933095488E0,9.371348149E0
7.740673792E0,-3.965013891E0,8.199938180E0,-2.387954633E0,9.416084570E0
7.750698792E0,-4.415930989E0,5.581970163E0,-5.126432887E0,8.771496540E0
7.760722792E0,-3.676917190E0,-4.109536012E0,-8.931820130E0,1.049692417E1
7.770747792E0,5.282530156E0,-2.251982369E1,-1.104891975E1,2.563447311E1
7.780772792E0,5.095121047E0,-2.254766813E1,-1.115619510E1,2.566745577E1
7.790797792E0,4.886308790E0,-2.263657388E1,-1.108526955E1,2.567437811E1
7.800822792E0,4.709113598E0,-2.277364197E1,-1.083857552E1,2.565714791E1
7.810847792E0,4.607977525E0,-2.289001559E1,-1.060245326E1,2.564367926E1
7.820872792E0,4.558725258E0,-2.292381250E1,-1.056077781E1,2.564786898E1
7.830897792E0,4.601947584E0,-2.288069279E1,-1.063629226E1,2.564828917E1
7.840922792E0,4.716240769E0,-2.279988427E1,-1.074852606E1,2.564387768E1
7.850947792E0,4.827613563E0,-2.271402610E1,-1.089219449E1,2.564902990E1
7.860972792E0,4.880879066E0,-2.264343383E1,-1.106771387E1,2.567182047E1
7.870996792E0,4.905503445E0,-2.258984761E1,-1.123182650E1,2.570056625E1
7.881021792E0,4.966847169E0,-2.253287468E1,-1.137354430E1,2.572464814E1
7.891046792E0,5.042056396E0,-2.246553113E1,-1.155409579E1,2.576081425E1
7.901071792E0,5.117098392E0,-2.239412259E1,-1.177795059E1,2.581475436E1
7.911096792E0,4.749665500E0,-8.353735154E0,-2.498065890E0,9.928975102E0
7.921121792E0,3.229052631E0,-5.265252804E0,-3.357819722E0,7.030264665E0
7.931146792E0,2.560850368E0,-2.313221077E0,-3.820661924E0,5.148437034E0
7.941171792E0,1.776576196E0,8.393368167E-1,-5.044214019E0,5.413391205E0
7.951196792E0,7.614609674E-1,2.897523982E0,-5.269964490E0,6.062012352E0
7.961221792E0,9.252803618E-1,4.796421298E0,-4.045330660E0,6.342436533E0
7.971246792E0,1.014915254E0,6.349534162E0,-2.847259562E0,7.032319963E0
7.981270792E0,1.631422868E-1,7.833049371E0,-1.864927332E0,8.053647113E0
7.991295792E0,-5.620209199E-1,8.916590472E0,-1.499068218E0,9.059175386E0
8.001320792E0,-1.108789670E0,9.778215120E0,-9.416227448E-1,9.885826160E0
8.011345792E0,-1.743465461E0,1.043901305E1,-3.521790413E-1,1.058946153E1
8.021370792E0,-2.227489201E0,1.069327572E1,-9.631182790E-2,1.092323806E1
8.031395792E0,-2.490978480E0,1.071864211E1,-2.814300708E-1,1.100788196E1
8.041420792E0,-2.956852756E0,1.070837791E1,-1.473120760E0,1.120635625E1
8.051445792E0,-3.161006536E0,1.079496815E1,-3.628827642E0,1.181912390E1
8.061470792E0,-3.615470263E0,1.097931800E1,-4.830977758E0,1.252818403E1
8.071495792E0,-3.718092113E0,1.071814744E1,-2.382684245E0,1.159224213E1
8.081520792E0,-3.193113305E0,1.030333660E1,1.179942391E0,1.085112813E1
8.091544792E0,-2.903042584E0,1.007404739E1,2.962401763E0,1.089448995E1
8.101569792E0,-2.782933758E0,9.977198793E0,3.502098306E0,1.093407100E1
8.111594792E0,-2.715069511E0,1.000419773E1,3.549956889E0,1.095708759E1
8.121619792E0,-2.695907601E0,1.007682248E1,3.682525547E0,1.106215456E1
8.131644792E0,-2.656990580E0,1.019936375E1,3.848676226E0,1.122046918E1
8.141669792E0,-2.547887968E0,1.033219612E1,4.027346087E0,1.137829189E1
8.151694792E0,-2.473480394E0,1.045820128E1,4.101943402E0,1.150295696E1
8.161719792E0,-2.395883165E0,1.052395906E1,4.108558942E0,1.154877600E1
8.171744792E0,-2.397173645E0,1.055232508E1,4.034856835E0,1.154894262E1
8.181769792E0,-2.486280242E0,1.046590206E1,3.939636390E0,1.145589064E1
8.191794792E0,-2.678326193E0,1.029027977E1,3.883585273E0,1.132013796E1
8.201819833E0,-2.883355886E0,1.009688545E1,3.707515962E0,1.113582110E1
8.211843833E0,-3.114067720E0,9.884680638E0,3.436471789E0,1.091850115E1
8.221868833E0,-3.257467760E0,9.530046424E0,3.125264261E0,1.054514854E1
8.231893833E0,-3.335497391E0,9.139455927E0,2.783105081E0,1.011933157E1
8.241918833E0,-3.224427483E0,8.953535519E0,2.522925035E0,9.845195865E0
8.251943833E0,-3.127114320E0,8.844885482E0,2.361676807E0,9.674107736E0
8.261968833E0,-3.083471872E0,8.810863457E0,2.235271261E0,9.598726543E0
8.271993833E0,-3.038379022E0,8.816648692E0,1.356699042E0,9.423676222E0
8.282018833E0,-5.540673033E0,8.337378738E0,-1.166465494E1,1.537124318E1
8.292043833E0,-6.547327926E0,6.581661606E0,-9.585531823E0,1.334421945E1
8.302068833E0,-3.265267946E0,4.430104347E0,3.478428192E0,6.510550052E0
8.312093833E0,6.409716336E-1,-2.679945579E0,6.836903679E-1,2.839081799E0
8.322117833E0,2.029355422E0,-1.552397398E1,-1.514413768E1,2.178203291E1
8.332142833E0,-1.904642498E0,-3.526470729E1,-2.532268885E1,4.345648184E1
8.342167833E0,-1.989922092E0,-3.533993757E1,-2.512635572E1,4.340742712E1
8.352192833E0,-2.164808511E0,-3.550656216E1,-2.474151070E1,4.333064394E1
8.362217833E0,-2.419733665E0,-3.566602743E1,-2.452134900E1,4.334993864E1
8.372242833E0,-2.626364034E0,-3.573877381E1,-2.453171260E1,4.342767164E1
8.382267833E0,-2.667583103E0,-3.572805001E1,-2.460884206E1,4.346498205E1
8.392292833E0,3.003920795E0,-9.144497396E0,2.828964794E0,1.003236834E1
8.402317833E0,1.788392250E0,-6.086745672E0,2.805951030E0,6.936871117E0
8.412342833E0,5.450341737E0,-1.204899009E1,1.748894893E0,1.333952850E1
8.422367833E0,5.352659907E0,-1.718649526E1,-2.045476780E0,1.811658254E1
8.432391833E0,5.427239388E0,-1.711369626E1,-2.262271218E0,1.809561820E1
8.442416833E0,5.499634350E0,-1.704954763E1,-2.469945753E0,1.808407267E1
8.452441833E0,2.387602338E0,-8.748679488E0,-4.942300558E0,1.032794135E1
8.462466833E0,1.651984602E0,-5.040591084E0,-3.686278875E0,6.459509544E0
8.472491833E0,9.732006329E-1,-2.102253537E0,-3.640907990E0,4.315414278E0
8.482516833E0,1.184014392E0,3.719127363E-1,-2.787334957E0,3.051138366E0
8.492541833E0,1.626600670E0,2.908972830E0,-2.151829154E0,3.967155325E0
8.502566833E0,1.235076080E0,5.153443515E0,-1.945319531E0,5.645144911E0
8.512591833E0,3.980711326E-1,7.339149098E0,-1.997460322E0,7.616522688E0
8.522616833E0,-5.360396942E-1,8.880576301E0,-2.635780975E0,9.278971675E0
8.532641833E0,-1.117887645E0,9.848657112E0,-2.762292502E0,1.028960541E1
8.542665833E0,-1.621741049E0,1.037710741E1,-2.140746342E0,1.071901102E1
8.552690833E0,-2.196454812E0,1.062248114E1,-1.540840727E0,1.095608094E1
8.562715833E0,-2.593981276E0,1.083458889E1,-1.595100549E0,1.125439474E1
8.572740833E0,-2.943818727E0,1.100649703E1,-2.621780401E0,1.169114100E1
8.582765833E0,-3.443114226E0,1.105637846E1,-4.159069530E0,1.230432442E1
8.592790833E0,-3.615331684E0,1.080148663E1,-3.151943936E0,1.181852305E1
8.602815833E0,-3.365280769E0,1.045967244E1,-1.335235083E-1,1.098852541E1
8.612840833E0,-2.964040738E0,1.022197143E1,2.098970325E0,1.084803732E1
8.622865833E0,-2.866168288E0,1.010011779E1,3.129884731E0,1.095552274E1
8.632890833E0,-2.826546385E0,1.003815835E1,3.426582685E0,1.097704225E1
8.642915833E0,-2.819829396E0,1.003074292E1,3.472070515E0,1.098282818E1
8.652939833E0,-2.774426644E0,1.005955916E1,3.849260656E0,1.112245393E1
8.662964833E0,-2.757925509E0,1.007969230E1,4.245953307E0,1.127982577E1
8.672989833E0,-2.823193299E0,1.010942539E1,4.422323750E0,1.138981341E1
8.683014833E0,-2.890572520E0,1.011480600E1,4.576277430E0,1.147201050E1
8.693039833E0,-3.003450679E0,1.012542922E1,4.741690775E0,1.157707494E1
8.703064833E0,-3.119122053E0,1.017515394E1,4.907089795E0,1.171930929E1
8.713089833E0,-3.299920300E0,1.020351060E1,4.938635523E0,1.180640603E1
8.723114833E0,-3.541177002E0,1.016327591E1,4.767143413E0,1.177105637E1
8.733139833E0,-3.793485235E0,9.979661640E0,4.445215015E0,1.156477899E1
8.743164833E0,-4.058640093E0,9.750648422E0,4.085544009E0,1.132428249E1
8.753189833E0,-4.277009331E0,9.366806197E0,3.674870957E0,1.093318543E1
8.763213833E0,-4.420020824E0,8.924115838E0,3.153728507E0,1.044616825E1
8.773238833E0,-4.450341268E0,8.667992005E0,2.582771579E0,1.008019503E1
8.783263833E0,-4.251497345E0,8.598490246E0,2.167850818E0,9.834065352E0
8.793288833E0,-4.043128891E0,8.587941284E0,1.352094945E0,9.587897969E0
8.803313833E0,-5.852694494E0,8.876813618E0,-1.356470416E1,1.723522706E1
8.813338833E0,-6.448241594E0,6.720915971E0,-9.780135931E0,1.350561328E1
8.823363833E0,-2.678425888E0,5.375341841E0,6.045029297E0,8.521187966E0
8.833388833E0,-2.557848115E0,3.980600814E0,7.208164451E0,8.622378127E0
8.843413833E0,-1.553709572E0,-1.388597943E0,8.538678492E0,8.789268916E0
8.853438833E0,1.836703553E0,-1.328677314E1,-1.397503486E1,1.937042642E1
8.863463833E0,-5.499885195E0,-3.216625368E1,-5.371506769E1,6.285081630E1
8.873487833E0,-5.547829440E0,-3.220891731E1,-5.362105850E1,6.279658175E1
8.883512833E0,-5.599126478E0,-3.232521842E1,-5.333924609E1,6.262064466E1
8.893537833E0,-5.670193537E0,-3.246339515E1,-5.304207656E1,6.244585659E1
8.903562833E0,-5.767795261E0,-3.255695528E1,-5.288236805E1,6.236800181E1
8.913587833E0,8.400760217E0,-7.456569375E0,5.747325329E0,1.261764429E1
8.923612833E0,2.276118301E0,-6.740097762E0,1.847740611E0,7.350086920E0
8.933637833E0,1.799878812E0,-1.216610046E1,2.047092366E0,1.246772439E1
8.943662833E0,4.604211041E0,-1.679610942E1,-8.362252209E-1,1.743580579E1
8.953687833E0,4.629333018E0,-1.671117160E1,-1.061952303E0,1.737301710E1
8.963712833E0,4.637726111E0,-1.663509932E1,-1.291735015E0,1.731772538E1
8.973736833E0,4.645042732E0,-1.657082673E1,-1.503083794E0,1.727506820E1
8.983761833E0,4.650327738E0,-1.651564538E1,-1.701401468E0,1.724200851E1
8.993786833E0,4.650894918E0,-1.646536167E1,-1.902510457E0,1.721506620E1
9.003811833E0,3.157835006E0,-7.734094017E0,-1.197725820E0,8.439353016E0
9.013836833E0,1.680174321E0,-4.039672310E0,-1.103795271E0,4.512239147E0
9.023861833E0,1.629835349E-1,-1.026116180E0,-2.136010097E0,2.375293073E0
9.033886833E0,-1.389679093E0,1.523300250E0,-3.103109161E0,3.725713099E0
9.043911833E0,-1.469064255E0,4.260761966E0,-3.656593438E0,5.803698638E0
9.053936833E0,-9.738439728E-1,6.413900312E0,-4.144490082E0,7.698265216E0
9.063961833E0,-6.439316404E-1,7.589986464E0,-3.970540094E0,8.589978528E0
9.073986833E0,-2.074688593E-1,8.231875672E0,-3.395351830E0,8.907032864E0
9.084010833E0,-1.242040698E-1,8.801438915E0,-2.277898632E0,9.092281111E0
9.094035833E0,-6.572894584E-1,9.241992116E0,-1.273496672E0,9.352445748E0
9.104060833E0,-1.272755830E0,9.740636235E0,-1.291835879E0,9.908014009E0
9.114085833E0,-2.309499617E0,1.011188941E1,-1.741789649E0,1.051750574E1
9.124110833E0,-2.961809440E0,1.017822724E1,-3.475341740E0,1.115556476E1
9.134135833E0,-3.038346862E0,1.016431086E1,-5.875255390E0,1.212696965E1
9.144160833E0,-3.658088279E0,1.008320764E1,-5.747130032E0,1.216890257E1
9.154185833E0,-4.347936642E0,9.870801687E0,-3.281370885E0,1.127407087E1
9.164210833E0,-4.425184500E0,9.772941517E0,4.057046726E-2,1.072820067E1
9.174235833E0,-3.466447540E0,9.977328601E0,1.832744404E0,1.072018174E1
9.184260833E0,-2.131939850E0,1.018923988E1,2.135796382E0,1.062673059E1
9.194284833E0,-1.393260074E0,1.023719524E1,2.762106560E0,1.069441782E1
9.204309417E0,-1.011722528E0,1.029135683E1,3.523070222E0,1.092463416E1
9.214334417E0,-7.410294802E-1,1.033803983E1,3.877630177E0,1.106617404E1
9.224359417E0,-4.566238345E-1,1.042367815E1,4.033202658E0,1.118607595E1
9.234384417E0,-3.869440274E-1,1.042560656E1,4.175091778E0,1.123718778E1
9.244409417E0,-4.879418139E-1,1.040871044E1,4.328425945E0,1.128337766E1
9.254434417E0,-7.333659732E-1,1.038471698E1,4.419154851E0,1.130969062E1
9.264459417E0,-1.050682088E0,1.031904222E1,4.427657872E0,1.127788630E1
9.274484417E0,-1.246105975E0,1.021376895E1,4.348104457E0,1.117049098E1
9.284509417E0,-1.437231428E0,1.006121860E1,4.165569295E0,1.098388463E1
9.294534417E0,-1.681213664E0,9.954496393E0,4.019759909E0,1.086632171E1
9.304558417E0,-1.814172331E0,9.881396842E0,3.897012527E0,1.077589585E1
9.314583417E0,-1.876280432E0,9.814972472E0,3.799961611E0,1.069082883E1
9.324608417E0,-1.953098520E0,9.661595913E0,3.533767118E0,1.047131985E1
9.334633417E0,-2.151228353E0,9.416996942E0,3.060199369E0,1.013274074E1
9.344658417E0,-2.264800431E0,9.194091141E0,2.586891235E0,9.815938017E0
9.354683417E0,-2.353953951E0,9.016851509E0,2.300075367E0,9.598700799E0
9.364708417E0,-2.562271534E0,8.874993964E0,1.819389217E0,9.414931248E0
9.374733417E0,-3.283229423E0,8.284296545E0,-4.126767464E0,9.820355105E0
9.384758417E0,-2.977697495E0,6.880256690E0,-1.338327091E0,7.615493017E0
9.394783417E0,-2.767928925E0,3.848908069E0,4.279810732E0,6.386885294E0
9.404807417E0,-1.984692342E0,-1.385718774E0,2.074409388E0,3.187851082E0
9.414832417E0,1.637214243E0,-1.684552892E1,-1.866897142E1,2.519886523E1
9.424857417E0,6.040712882E0,-4.256505426E1,-4.614147331E1,6.306591485E1
9.434882417E0,5.693402891E0,-4.267891125E1,-4.613082202E1,6.310274988E1
9.444907417E0,5.438247356E0,-4.280323709E1,-4.603314078E1,6.309311919E1
9.454932417E0,5.333184586E0,-4.290253684E1,-4.586945616E1,6.303235307E1
9.464957417E0,5.314640141E0,-4.295466126E1,-4.575183357E1,6.298077960E1
9.474982417E0,4.994677577E0,-9.335548151E0,1.079922961E1,1.512357839E1
9.485007417E0,3.665020445E0,-5.526890561E0,9.618894281E0,1.168340795E1
9.495032417E0,1.860037014E0,-8.211389952E0,7.488759466E0,1.126801584E1
9.505057417E0,-1.943409830E-1,-1.570925587E1,2.534715360E0,1.591361902E1
9.515081417E0,-2.323361903E-2,-1.555352347E1,2.192233415E0,1.570727600E1
9.525106417E0,9.372268081E-2,-1.544931439E1,1.923048364E0,1.556882186E1
9.535131417E0,1.543647391E-1,-1.538947165E1,1.738393878E0,1.548811413E1
9.545156417E0,1.823164764E-1,-1.534881596E1,1.581930573E0,1.543119875E1
9.555181417E0,6.427652963E0,-8.286833652E0,-1.628223711E0,1.061307906E1
9.565206417E0,4.351477716E0,-5.469447514E0,-7.857992716E-1,7.033327443E0
9.575231417E0,2.179265752E0,-3.369131160E0,-2.764402177E0,4.872593087E0
9.585256417E0,1.610096611E0,-1.527723668E0,-4.369137769E0,4.900583184E0
9.595281417E0,2.553513574E0,-1.866173959E-1,-4.358636169E0,5.054994251E0
9.605306417E0,2.957419935E0,1.339825147E0,-3.563046466E0,4.820452699E0
9.615330417E0,2.793680940E0,3.047374671E0,-2.749853135E0,4.965162419E0
9.625355417E0,1.753957120E0,4.473577226E0,-2.197591803E0,5.283811930E0
9.635380417E0,9.704787540E-1,5.996772811E0,-1.758313880E0,6.324142697E0
9.645405417E0,4.864737242E-1,7.703762755E0,-1.409588277E0,7.846754513E0
9.655430417E0,-1.791832459E-1,9.103920059E0,-6.764317075E-1,9.130773621E0
9.665455417E0,-7.714714006E-1,1.010261338E1,-6.246861879E-1,1.015126584E1
9.675480417E0,-1.031219484E0,1.056055328E1,-8.285796940E-1,1.064308430E1
9.685505417E0,-1.189981768E0,1.061710521E1,-8.583537892E-1,1.071801058E1
9.695530417E0,-1.444981474E0,1.047213519E1,-9.955972230E-1,1.061813547E1
9.705555417E0,-2.220714033E0,1.036520716E1,-1.854194330E0,1.076137198E1
9.715580417E0,-3.677855961E0,1.013535662E1,-3.278076564E0,1.126933291E1
9.725604417E0,-4.598701209E0,9.993915982E0,-3.371600440E0,1.150626347E1
9.735629417E0,-4.732281436E0,9.790461529E0,-8.922044170E-1,1.091071277E1
9.745654417E0,-4.004202515E0,9.645509053E0,1.509231703E0,1.055212126E1
9.755679417E0,-3.071202074E0,9.601912798E0,2.503090402E0,1.038722644E1
9.765704417E0,-2.530999747E0,9.537468880E0,2.956544023E0,1.030099145E1
9.775729417E0,-2.364556122E0,9.510641270E0,3.428579217E0,1.038260942E1
9.785754417E0,-2.220717395E0,9.525674461E0,3.702688209E0,1.045848745E1
9.795779417E0,-1.526895410E0,9.696401464E0,3.537832395E0,1.043397666E1
9.805804417E0,-2.487290348E0,9.521728175E0,4.321201710E0,1.074814891E1
9.815829417E0,-1.761891499E0,9.697327663E0,4.333025657E0,1.076650068E1
9.825854417E0,-1.936818703E0,9.708538529E0,4.670699730E0,1.094634291E1
9.835878417E0,-1.720892138E0,9.781354491E0,4.654121412E0,1.096800855E1
9.845903417E0,-1.480710739E0,9.863907820E0,4.541325991E0,1.095959961E1
9.855928417E0,-1.163816793E0,9.945709198E0,4.326400470E0,1.090822359E1
9.865953417E0,-8.878394705E-1,9.985131125E0,3.995807375E0,1.079155128E1
9.875978417E0,-7.712623626E-1,1.001919700E1,3.652716734E0,1.069212298E1
9.886003417E0,-6.831617796E-1,1.004299049E1,3.385529677E0,1.062027209E1
9.896028417E0,-7.459405567E-1,9.997116748E0,3.091145757E0,1.049066026E1
9.906053417E0,-8.920434724E-1,9.944901112E0,2.796018072E0,1.036892071E1
9.916078417E0,-1.007465024E0,9.904004517E0,2.462225381E0,1.025508874E1
9.926103417E0,-1.093673887E0,9.834092867E0,2.205646050E0,1.013757267E1
9.936127417E0,-1.157629416E0,9.517292477E0,2.023581004E0,9.798665320E0
9.946152417E0,-1.307570298E0,9.220029389E0,1.973951299E0,9.519199848E0
9.956177417E0,-1.348669353E0,9.107880378E0,2.088051819E0,9.440993295E0
9.966202417E0,-1.286568853E0,8.957808080E0,2.087151348E0,9.287291627E0
9.976227417E0,-1.785760126E-1,8.843881515E0,1.724064984E0,9.012132362E0
9.986252417E0,-8.859585674E-1,8.218294344E0,1.362228169E0,8.377407122E0
9.996277417E0,-4.692665673E0,-1.108412232E1,-7.546054929E1,7.641448409E1
1.000630242E1,-2.853332773E0,-4.248524211E1,-5.829821355E1,7.219292908E1
1.001632742E1,-3.119993288E0,-4.249086947E1,-5.843235336E1,7.231561564E1
1.002635242E1,-3.331785579E0,-4.254900015E1,-5.841868491E1,7.234819248E1
1.003637742E1,-3.495323137E0,-4.262973850E1,-5.832859101E1,7.233074324E1
1.004640142E1,-3.598172737E0,-4.268170388E1,-5.827490889E1,7.232316157E1
1.005642642E1,2.397258430E0,-6.841637000E0,1.221283141E1,1.420239754E1
1.006645142E1,-2.877577960E0,-4.362706416E0,8.559507444E0,1.002889973E1
1.007647642E1,-1.132325883E0,-1.127185888E1,3.613917242E0,1.189106229E1
1.008650142E1,3.230023853E0,-1.890117371E1,-4.591132866E0,1.971714794E1
1.009652642E1,3.242535433E0,-1.876785018E1,-5.040440226E0,1.970158050E1
1.010655142E1,3.255254297E0,-1.870314255E1,-5.287949356E0,1.970701982E1
1.011657642E1,3.277568149E0,-1.867308085E1,-5.396973031E0,1.971176601E1
1.012660142E1,4.309172233E0,-9.516425920E0,-2.609931019E-1,1.044985383E1
1.013662542E1,2.226283506E0,-6.429320004E0,3.933844431E-1,6.815221587E0
1.014665042E1,4.093366706E-1,-3.844033245E0,-2.981005557E-1,3.877242840E0
1.015667542E1,-8.510688163E-1,-1.841389951E0,-1.305218986E0,2.412184007E0
1.016670042E1,-1.578953463E0,3.729991490E-1,-2.075188529E0,2.634127908E0
1.017672542E1,-8.312207352E-1,2.799904717E0,-2.552578604E0,3.878924060E0
1.018675042E1,8.728284985E-2,4.652486238E0,-3.022028160E0,5.548504365E0
1.019677542E1,2.500770812E-1,6.305291789E0,-2.755415007E0,6.885604908E0
1.020680092E1,6.697972374E-1,8.029384255E0,-2.311742316E0,8.382350052E0
1.021682592E1,3.913579443E-1,9.285486045E0,-1.310591408E0,9.385683884E0
1.022685092E1,-9.656048074E-2,9.976179038E0,-6.821607363E-1,9.999940770E0
1.023687592E1,1.982662189E-1,1.051093147E1,-2.458730793E0,1.079649698E1
1.024689992E1,-9.526374373E-1,1.052902509E1,-1.912000927E0,1.074353922E1
1.025692492E1,-1.734636896E0,1.059204521E1,-2.298231740E0,1.097644096E1
1.026694992E1,-2.003606623E0,1.091323043E1,-4.286916561E0,1.189498598E1
1.027697492E1,-2.388760233E0,1.095783533E1,-5.507891203E0,1.249468671E1
1.028699992E1,-3.219048045E0,1.070273885E1,-5.102545842E0,1.228604344E1
1.029702492E1,-3.280355516E0,1.051604895E1,-4.366293683E0,1.184957967E1
1.030704992E1,-3.459000526E0,1.026547939E1,-3.386034876E0,1.134944862E1
1.031707492E1,-3.617725826E0,1.011187888E1,-2.420637499E0,1.100897455E1
1.032709992E1,-3.669859893E0,1.006974267E1,-1.561806357E0,1.083082768E1
1.033712492E1,-3.546557318E0,1.010916694E1,-4.360751107E-2,1.071332006E1
1.034714992E1,-3.185050287E0,1.010405414E1,2.598163790E0,1.090811214E1
1.035717392E1,-2.470841546E0,1.006134607E1,4.798619267E0,1.141763941E1
1.036719892E1,-1.847420915E0,1.000733066E1,4.938277674E0,1.131133137E1
1.037722392E1,-1.584752586E0,9.910383829E0,4.352080564E0,1.093927574E1
1.038724892E1,-1.464827216E0,9.842910469E0,4.072253580E0,1.075229531E1
1.039727392E1,-1.405073204E0,9.813655679E0,4.083921114E0,1.072196251E1
1.040729892E1,-1.434416724E0,9.819277192E0,4.069760912E0,1.072561000E1
1.041732392E1,-1.428346730E0,9.784496784E0,3.941644032E0,1.064486305E1
1.042734892E1,-1.367929643E0,9.746199276E0,3.704510201E0,1.051584650E1
1.043737392E1,-1.354793727E0,9.700393358E0,3.346414143E0,1.035043888E1
1.044739892E1,-1.375831278E0,9.636418971E0,3.110475775E0,1.021902842E1
1.045742292E1,-1.493884223E0,9.602688723E0,2.967345292E0,1.016112488E1
1.046744792E1,-1.621180447E0,9.559591820E0,2.902230113E0,1.012111463E1
1.047747292E1,-1.724798517E0,9.434125190E0,2.829156582E0,9.999088708E0
1.048749792E1,-1.816993613E0,9.249371302E0,2.799976345E0,9.833219351E0
1.049752292E1,-1.817826987E0,9.027932568E0,2.794787526E0,9.623871296E0
1.050754792E1,-1.766970683E0,8.936365170E0,2.650388196E0,9.487115760E0
1.051757292E1,-1.676701075E0,8.874898655E0,2.495186136E0,9.370224463E0
1.052759792E1,-1.693389321E0,8.772575889E0,2.565621403E0,9.295594027E0
1.053762292E1,-6.885301083E-1,8.548432817E0,1.869476905E0,8.777512247E0
1.054764792E1,-1.182567060E0,5.239907463E0,-9.114454402E0,1.057962070E1
1.055767292E1,-1.729629048E0,-1.938016476E1,-5.356053280E1,5.698520050E1
1.056769692E1,-1.820639352E0,-1.940214795E1,-5.354726196E1,5.698304428E1
1.057772192E1,-2.137530520E0,-1.940433598E1,-5.375146076E1,5.718668399E1
1.058774692E1,-2.485559865E0,-1.946135334E1,-5.385182705E1,5.731440969E1
1.059777192E1,-2.740021335E0,-1.954301088E1,-5.382440595E1,5.732803561E1
1.060779692E1,-2.907504887E0,-1.961997427E1,-5.374699817E1,5.728993618E1
1.061782192E1,4.808472410E0,-8.876365721E0,5.764568768E0,1.162503886E1
1.062784692E1,2.902293263E0,-4.887787551E0,-3.081236773E0,6.465894632E0
1.063787192E1,3.248396975E0,-7.808969368E0,-3.849322636E0,9.292436185E0
1.064789692E1,6.339641258E0,-1.671455363E1,-1.474186854E0,1.793712856E1
1.065792192E1,6.412439092E0,-1.665542307E1,-1.621495466E0,1.792070703E1
1.066794592E1,6.494588964E0,-1.660108256E1,-1.750585761E0,1.791201213E1
1.067797092E1,6.582691301E0,-1.653761805E1,-1.928744721E0,1.790376194E1
1.068799592E1,6.673749990E0,-1.646880451E1,-2.156891674E0,1.790007381E1
1.069802092E1,1.426384404E0,-9.177794951E0,-2.900027175E0,9.730192713E0
1.070804592E1,1.318512631E0,-7.287791834E0,-3.152451475E0,8.049120180E0
1.071807092E1,1.032662869E0,-4.662927026E0,-3.520160648E0,5.933027224E0
1.072809592E1,6.038906385E-1,-1.701602905E0,-4.091322520E0,4.472030446E0
1.073812092E1,8.631484330E-2,1.148311293E0,-4.130965472E0,4.288466487E0
1.074814592E1,-1.788239345E-2,3.708348021E0,-3.268648514E0,4.943301319E0
1.075817092E1,1.373854481E-1,5.760881513E0,-2.629965334E0,6.334299348E0
1.076819592E1,6.517160386E-2,7.257079334E0,-2.423520030E0,7.651333029E0
1.077821992E1,2.220544463E-1,8.372031677E0,-2.852471770E0,8.847418707E0
1.078824492E1,5.880369365E-2,9.521672627E0,-3.192089750E0,1.004266620E1
1.079826992E1,-4.325312595E-1,1.027615523E1,-2.565002768E0,1.060026834E1
1.080829492E1,-5.688957837E-1,1.066078625E1,-2.116863974E0,1.088380076E1
1.081831992E1,-3.782326993E-1,1.088146017E1,-2.274479181E0,1.112306122E1
1.082834492E1,-4.339847311E-1,1.096426142E1,-3.490632209E0,1.151468126E1
1.083836992E1,-1.623200952E0,1.094132045E1,-5.391504714E0,1.230510454E1
1.084839492E1,-2.837158205E0,1.067452253E1,-5.674230455E0,1.241739865E1
1.085841992E1,-2.980185777E0,1.019332241E1,-3.326278671E0,1.112876717E1
1.086844492E1,-2.765300017E0,9.796663671E0,-3.902957976E-1,1.018694429E1
1.087846992E1,-2.140156066E0,9.749757891E0,1.447621199E0,1.008631023E1
1.088849392E1,-2.527612748E0,9.634141481E0,2.364522939E0,1.023701504E1
1.089851892E1,-2.431301212E0,9.652722763E0,3.049515921E0,1.041085153E1
1.090854392E1,-2.341898308E0,9.697249310E0,3.480853325E0,1.056586351E1
1.091856892E1,-2.267475824E0,9.700077608E0,3.741464896E0,1.064102964E1
1.092859392E1,-2.465737512E0,9.677866960E0,4.006879370E0,1.076085743E1
1.093861892E1,-2.491385154E0,9.698300055E0,4.269022912E0,1.088524600E1
1.094864392E1,-2.505412624E0,9.749325782E0,4.425559307E0,1.099600022E1
1.095866892E1,-2.519275787E0,9.767801814E0,4.279778573E0,1.095779209E1
1.096869392E1,-2.360587471E0,9.772966075E0,3.992379737E0,1.081768622E1
1.097871892E1,-2.139475011E0,9.805958405E0,3.657172605E0,1.068218540E1
1.098874392E1,-2.054308269E0,9.860208871E0,3.306114840E0,1.060067436E1
1.099876892E1,-2.024110031E0,9.919292647E0,3.022364960E0,1.056522967E1
1.100879292E1,-2.064844659E0,1.000254296E1,2.897696182E0,1.061654804E1
1.101881792E1,-2.131225321E0,1.005041412E1,2.860176938E0,1.066459364E1
1.102884292E1,-2.167370177E0,1.002337893E1,2.764730498E0,1.062117477E1
1.103886792E1,-2.125647077E0,9.992320862E0,2.522130983E0,1.052264208E1
1.104889292E1,-2.009797947E0,9.928306714E0,2.116752000E0,1.034848786E1
1.105891792E1,-1.845753143E0,9.837250364E0,1.836962146E0,1.017608615E1
1.106894292E1,-1.673406315E0,9.644039648E0,1.780916584E0,9.948841807E0
1.107896792E1,-1.668000711E0,9.303725265E0,1.854781244E0,9.632328048E0
1.108899292E1,-1.623069244E0,9.051352420E0,1.903384177E0,9.390644586E0
1.109901792E1,-1.560690562E0,8.871271042E0,1.985998756E0,9.223849305E0
1.110904292E1,1.642965272E-1,8.667527736E0,1.596728707E0,8.814906294E0
1.111906692E1,2.436647760E0,5.802448785E0,-8.968135432E0,1.095596264E1
1.112909192E1,4.639100207E0,-1.163418393E1,-4.197264244E1,4.380157760E1
1.113911692E1,4.292921652E0,-1.172313646E1,-4.193371870E1,4.375268984E1
1.114914192E1,3.895624398E0,-1.175970494E1,-4.215435519E1,4.393695724E1
1.115916692E1,3.552475870E0,-1.181374725E1,-4.233085223E1,4.409178789E1
1.116919192E1,3.341267716E0,-1.187400164E1,-4.237145529E1,4.413044537E1
1.117921692E1,3.252326303E0,-1.192301768E1,-4.231033084E1,4.407834018E1
1.118924192E1,3.274287568E0,-1.195208769E1,-4.218397017E1,4.396658616E1
1.119926692E1,8.315471560E-1,-9.097800947E0,4.955619346E0,1.039324857E1
1.120929158E1,-2.782564214E0,-8.517205178E0,-8.060489103E-1,8.996397195E0
1.121931658E1,-8.346108046E-1,-1.534387389E1,-8.569844736E0,1.759469465E1
1.122934058E1,-7.585078311E-1,-1.527543340E1,-8.756405414E0,1.762353073E1
1.123936558E1,-7.083784819E-1,-1.522581978E1,-8.912509700E0,1.765673291E1
1.124939058E1,-6.567215475E-1,-1.517620732E1,-9.082515156E0,1.769860541E1
1.125941558E1,-5.907789883E-1,-1.511919112E1,-9.293571575E0,1.775695448E1
1.126944058E1,1.942024917E0,-8.295253057E0,-2.529575658E0,8.887150110E0
1.127946558E1,1.673880086E0,-5.969780894E0,-3.391912497E0,7.067193846E0
1.128949058E1,1.967633091E0,-4.133645836E0,-4.064922341E0,6.122270944E0
1.129951558E1,2.132385116E0,-2.223602557E0,-4.282147572E0,5.275249989E0
1.130954058E1,2.222750910E0,1.341585159E-2,-3.945910453E0,4.528908356E0
1.131956558E1,1.778375969E0,2.291657715E0,-3.739946959E0,4.733024343E0
1.132959058E1,1.020989634E0,4.291696075E0,-3.801414059E0,5.823385947E0
1.133961558E1,3.528073977E-1,6.081194910E0,-3.713878902E0,7.134304528E0
1.134963958E1,-1.004800156E-1,7.401683900E0,-3.130768830E0,8.037209358E0
1.135966458E1,-4.434711076E-1,8.409715227E0,-3.146130635E0,8.989889588E0
1.136968958E1,-8.975660214E-1,9.681006914E0,-3.295461506E0,1.026584561E1
1.137971458E1,-9.764972931E-1,1.061921722E1,-2.744454986E0,1.101151010E1
1.138973958E1,-8.939153123E-1,1.081089714E1,-1.967258284E0,1.102473069E1
1.139976458E1,-7.144014063E-1,1.079290058E1,-1.795077664E0,1.096445968E1
1.140978958E1,-5.849607164E-1,1.079911968E1,-2.587408129E0,1.112015493E1
1.141981458E1,-7.680124801E-1,1.091893614E1,-4.285858215E0,1.175506658E1
1.142983958E1,-1.587777058E0,1.076162148E1,-5.010389045E0,1.197654087E1
1.143986458E1,-1.925555504E0,1.044863640E1,-3.513300694E0,1.119039983E1
1.144988958E1,-1.787264176E0,1.010411261E1,-5.266867805E-1,1.027447341E1
1.145991458E1,-1.835558376E0,9.848154252E0,1.708863977E0,1.016246195E1
1.146993858E1,-1.641600824E0,9.864980199E0,2.872335931E0,1.040495081E1
1.147996358E1,-1.495093135E0,9.960354134E0,3.683189206E0,1.072426411E1
1.148998858E1,-1.507361178E0,1.004669061E1,4.229640745E0,1.100445323E1
1.150001358E1,-1.690035943E0,1.005937205E1,4.170919497E0,1.102015231E1
1.151003858E1,-1.792626511E0,1.009200887E1,3.988307736E0,1.099857952E1
1.152006358E1,-1.651373276E0,1.013658103E1,3.875262054E0,1.097701984E1
1.153008858E1,-1.327026323E0,1.024648062E1,3.780265850E0,1.100189864E1
1.154011358E1,-1.133447963E0,1.024448555E1,3.564871967E0,1.090607631E1
1.155013858E1,-1.275493058E0,9.855819951E0,3.287571273E0,1.046767378E1
1.156016358E1,-1.426587010E0,9.534686190E0,2.879609867E0,1.006168695E1
1.157018858E1,-1.529880121E0,9.465069240E0,2.333850639E0,9.867873515E0
1.158021358E1,-1.789562570E0,9.444935523E0,1.849929224E0,9.789360518E0
1.159023758E1,-2.040897387E0,9.450065285E0,1.575132454E0,9.795409041E0
1.160026258E1,-2.157765248E0,9.480805267E0,1.458060379E0,9.831966205E0
1.161028758E1,-2.045642695E0,9.604890785E0,1.319942421E0,9.908623972E0
1.162031258E1,-1.678256581E0,9.657638517E0,1.145007470E0,9.869020670E0
1.163033758E1,-1.340188698E0,9.397433327E0,1.082187616E0,9.554003817E0
1.164036258E1,-1.362226708E0,9.107815474E0,1.218585762E0,9.289398020E0
1.165038758E1,-1.544961552E0,8.787945296E0,1.663197515E0,9.076404282E0
1.166041258E1,-4.708620093E0,5.557054592E0,-6.636953462E0,9.853989557E0
1.167043758E1,-9.886039531E0,-6.980859205E0,-1.624896323E1,2.026067568E1
1.168046258E1,2.501935869E0,-2.632618099E1,-2.089311894E1,3.370237243E1
1.169048758E1,2.135592606E0,-2.644595068E1,-2.087639357E1,3.376052238E1
1.170051258E1,1.783212494E0,-2.657379420E1,-2.087097671E1,3.383702194E1
1.171053658E1,1.568252474E0,-2.667327873E1,-2.082432294E1,3.387588581E1
1.172056158E1,1.510687513E0,-2.672882961E1,-2.072615287E1,3.385684454E1
1.173058658E1,6.838667200E0,-8.213479747E0,9.494608789E0,1.429602094E1
1.174061158E1,4.271550663E0,-5.590018271E0,-9.806657732E-3,7.035235995E0
1.175063658E1,4.886944090E0,-1.158157069E1,-8.037272733E0,1.492021297E1
1.176066158E1,5.490871128E0,-1.901658138E1,-4.935046502E0,2.039938031E1
1.177068658E1,5.517949584E0,-1.897675014E1,-5.047781990E0,2.039717914E1
1.178071158E1,5.549321065E0,-1.894205511E1,-5.140014800E0,2.039647440E1
1.179073658E1,5.603210174E0,-1.889415939E1,-5.259486279E0,2.039724048E1
1.180076158E1,5.677784393E0,-1.883436810E1,-5.410906945E0,2.040217075E1
1.181078658E1,-2.532686377E-1,-9.215842198E0,-2.031761405E0,9.440548015E0
1.182081058E1,1.250888120E0,-7.049315482E0,-7.808862948E-1,7.201899282E0
1.183083558E1,1.954413413E0,-4.677784801E0,-6.221108548E-1,5.107682875E0
1.184086058E1,1.912103253E0,-1.726725467E0,-1.629387453E0,3.048380416E0
1.185088558E1,1.962176469E0,9.150605983E-1,-2.702689494E0,3.462947140E0
1.186091058E1,2.018811138E0,3.284980372E0,-3.265405648E0,5.052679338E0
1.187093558E1,1.537723284E0,5.281241430E0,-2.172144721E0,5.913908744E0
1.188096058E1,1.115118404E0,7.116953149E0,-1.245646384E0,7.310687115E0
1.189098558E1,6.210485619E-1,8.232876715E0,-2.742426733E-1,8.260821349E0
1.190101058E1,8.645108342E-4,9.166372415E0,2.823510803E-2,9.166415942E0
1.191103558E1,-5.876823029E-1,9.747661664E0,-8.259067856E-2,9.765710401E0
1.192106058E1,-1.008206451E0,1.017521007E1,-8.347594701E-2,1.022537767E1
1.193108558E1,-1.397939747E0,1.038027660E1,-9.239697084E-3,1.047398985E1
1.194110958E1,-1.520252973E0,1.031061522E1,-2.774730407E-2,1.042212671E1
1.195113458E1,-1.542852754E0,1.026812701E1,-6.035846829E-1,1.040092022E1
1.196115958E1,-1.634049438E0,1.043325706E1,-2.541657175E0,1.086199759E1
1.197118458E1,-2.125203858E0,1.060680475E1,-4.940659829E0,1.189247317E1
1.198120958E1,-2.956333230E0,1.043467910E1,-4.993675364E0,1.193981690E1
1.199123458E1,-2.855161489E0,1.018316813E1,-2.901419105E0,1.096663545E1
1.200125958E1,-3.099900501E0,9.772186056E0,5.737887338E-2,1.025223370E1
1.201128458E1,-3.126752085E0,9.506575701E0,2.377407425E0,1.028608897E1
1.202130958E1,-2.636573272E0,9.524817259E0,3.419216363E0,1.045775803E1
1.203133458E1,-3.013499996E0,9.427677466E0,4.060507401E0,1.069813091E1
1.204135958E1,-2.950596235E0,9.405393142E0,4.309889979E0,1.075837302E1
1.205138458E1,-3.247671043E0,9.321476242E0,4.366349816E0,1.079362299E1
1.206140858E1,-3.548553557E0,9.253149773E0,3.982393570E0,1.068047151E1
1.207143358E1,-3.719483166E0,9.210003753E0,3.659981900E0,1.058556525E1
1.208145858E1,-3.811002908E0,9.203426805E0,3.402723414E0,1.052641130E1
1.209148358E1,-3.814802721E0,9.233590837E0,3.174241709E0,1.048273485E1
1.210150858E1,-3.758886383E0,9.230453805E0,3.007537590E0,1.041036919E1
1.211153358E1,-3.627547394E0,9.271438694E0,2.845418566E0,1.035447161E1
1.212155858E1,-3.299100813E0,9.331717055E0,2.649780378E0,1.024628447E1
1.213158358E1,-2.880888069E0,9.404686798E0,2.443121066E0,1.013491442E1
1.214160858E1,-2.703593473E0,9.434829195E0,2.148817985E0,1.004703132E1
1.215163358E1,-2.531990850E0,9.443407645E0,1.786046493E0,9.938756849E0
1.216165858E1,-2.400213613E0,9.326707161E0,1.423528039E0,9.735241339E0
1.217168358E1,-2.210636941E0,8.914252755E0,1.222163089E0,9.265230730E0
1.218170758E1,2.698340920E-1,8.924830368E0,5.726681149E-1,8.947254121E0
1.219173258E1,4.523134133E-1,8.449634753E0,1.196531088E0,8.545911393E0
1.220175729E1,-1.191242428E0,7.061763035E0,3.907697144E-1,7.172186323E0
1.221178229E1,4.558740753E-1,-1.536562319E1,-4.295065241E1,4.561873233E1
1.222180729E1,7.471762195E-1,-5.581142080E1,-3.592736288E1,6.637957794E1
1.223183229E1,5.982429591E-1,-5.585648179E1,-3.590082120E1,6.640160702E1
1.224185729E1,2.511294338E-1,-5.594715105E1,-3.590907279E1,6.648013452E1
1.225188229E1,-8.413850963E-2,-5.605046901E1,-3.591180461E1,6.656815955E1
1.226190729E1,-3.344306222E-1,-5.613144125E1,-3.592863524E1,6.664621048E1
1.227193229E1,1.131996392E0,-8.668084391E0,8.683556124E0,1.232157660E1
1.228195729E1,-1.380132636E0,-5.700563391E0,7.021087464E0,9.148598704E0
1.229198129E1,-9.284703103E-1,-8.609739704E0,5.328967574E0,1.016796785E1
1.230200629E1,4.973620584E0,-1.655481705E1,3.607857773E-1,1.728956436E1
1.231203129E1,4.991621237E0,-1.647693798E1,6.976897717E-2,1.721658025E1
1.232205629E1,5.004824250E0,-1.643518068E1,-1.000891292E-1,1.718061255E1
1.233208129E1,5.036059492E0,-1.640182114E1,-2.121157877E-1,1.715886433E1
1.234210629E1,2.695856438E0,-9.755379404E0,6.648167253E-2,1.012123950E1
1.235213129E1,8.267901537E-1,-7.191379434E0,4.319348435E-1,7.251626564E0
1.236215629E1,-7.691898170E-1,-5.318344352E0,1.411962247E-1,5.375534950E0
1.237218129E1,-1.687959304E0,-3.536710607E0,-1.022770550E0,4.050134334E0
1.238220629E1,-2.350718687E0,-1.359816778E0,-2.528476381E0,3.710548857E0
1.239223129E1,-2.485920053E0,1.099927338E0,-3.546345649E0,4.468356087E0
1.240225629E1,-2.307560388E0,3.731533400E0,-3.717876059E0,5.750806800E0
1.241228029E1,-1.845003822E0,5.909987267E0,-3.792816314E0,7.260677942E0
1.242230529E1,-1.375015738E0,7.663352648E0,-3.639849644E0,8.594541728E0
1.243233029E1,-1.231638502E0,9.186673948E0,-3.089772831E0,9.770292102E0
1.244235529E1,-1.409648796E0,1.025939478E1,-2.376575074E0,1.062498941E1
1.245238029E1,-1.423613409E0,1.059585643E1,-1.238822683E0,1.076259867E1
1.246240529E1,-1.387263608E0,1.062963228E1,-5.532764089E-1,1.073404386E1
1.247243029E1,-1.319217221E0,1.055232040E1,-4.131116331E-1,1.064248378E1
1.248245529E1,-1.213690473E0,1.055678533E1,-1.130034066E0,1.068624060E1
1.249248029E1,-1.169586680E0,1.085292225E1,-3.599978650E0,1.149407241E1
1.250250529E1,-1.580481926E0,1.125405177E1,-6.669184484E0,1.317685949E1
1.251253029E1,-1.745425155E0,1.138763959E1,-6.965721349E0,1.346276786E1
1.252255529E1,-1.541956083E0,1.110907824E1,-4.621255674E0,1.213034426E1
1.253257929E1,-1.387950656E0,1.067813377E1,-1.411381034E0,1.086006189E1
1.254260429E1,-1.897936034E0,1.014877832E1,1.029285225E0,1.037589951E1
1.255262929E1,-2.060583354E0,9.896683803E0,2.345829245E0,1.037753675E1
1.256265429E1,-2.044163349E0,9.776004288E0,3.173972444E0,1.047964526E1
1.257267929E1,-2.011298781E0,9.641696668E0,4.075499370E0,1.065914314E1
1.258270429E1,-2.082731876E0,9.503867855E0,5.011165556E0,1.094408774E1
1.259272929E1,-2.126657476E0,9.402230383E0,5.765687925E0,1.123244254E1
1.260275429E1,-2.196649524E0,9.366405662E0,5.879098765E0,1.127468964E1
1.261277929E1,-2.299452639E0,9.404212589E0,5.412328404E0,1.109143794E1
1.262280429E1,-2.318301577E0,9.438258002E0,4.863978566E0,1.086800459E1
1.263282929E1,-2.374133131E0,9.441461692E0,4.327063251E0,1.065369342E1
1.264285329E1,-2.442792014E0,9.420868383E0,3.724886286E0,1.042088152E1
1.265287829E1,-2.458605663E0,9.387722856E0,3.167769718E0,1.020827347E1
1.266290329E1,-2.430568556E0,9.340434085E0,2.705395878E0,1.002349935E1
1.267292829E1,-2.455496698E0,9.306106251E0,2.426618177E0,9.925802404E0
1.268295329E1,-2.554944388E0,9.276550915E0,2.249439064E0,9.881402421E0
1.269297829E1,-2.596795249E0,9.203099946E0,2.193399349E0,9.810779525E0
1.270300329E1,-2.636731732E0,9.034799538E0,2.136303627E0,9.651100979E0
1.271302829E1,-2.667619649E0,8.880071102E0,2.076259739E0,9.501721521E0
1.272305329E1,-2.717160476E0,8.782684556E0,2.039107847E0,9.416818458E0
1.273307829E1,-2.874723349E0,8.663134139E0,1.783906412E0,9.300335990E0
1.274310329E1,-3.733875795E0,6.479559281E0,-4.897282552E0,8.939233375E0
1.275312829E1,-4.072402099E0,-1.042855005E0,-9.156930331E0,1.007578178E1
1.276315229E1,6.271236728E-1,-2.276060502E1,-1.766557285E1,2.881858582E1
1.277317729E1,6.033368779E0,-5.970626050E1,-4.275001339E1,7.368040938E1
1.278320229E1,5.721574776E0,-5.980017614E1,-4.267858848E1,7.369029379E1
1.279322729E1,5.396553200E0,-5.991410797E1,-4.259429970E1,7.370954814E1
1.280325229E1,5.175652995E0,-6.002040567E1,-4.247090474E1,7.370898338E1
1.281327729E1,5.064687459E0,-6.009989974E1,-4.234011889E1,7.369080455E1
1.282330229E1,1.537887006E0,-1.038299205E1,8.272302736E0,1.336422886E1
1.283332729E1,-3.835364163E-2,-5.748849698E0,9.398198143E0,1.101711724E1
1.284335229E1,1.837670537E0,-5.085452092E0,9.077881823E0,1.056630467E1
1.285337729E1,4.134614720E0,-1.191720204E1,6.092674749E0,1.400840565E1
1.286340129E1,4.860443047E0,-1.860232603E1,-4.799089091E-1,1.923280408E1
1.287342629E1,4.936234657E0,-1.853191620E1,-7.521225254E-1,1.919281164E1
1.288345129E1,5.017437279E0,-1.848373397E1,-9.177918327E-1,1.917460404E1
1.289347629E1,7.234980952E0,-9.311468732E0,-9.289478524E0,1.501142267E1
1.290350129E1,6.666900562E0,-6.332535721E0,-5.596123348E0,1.076406839E1
1.291352629E1,3.860743125E0,-3.263832162E0,-3.708113548E0,6.269612743E0
1.292355129E1,1.625559281E0,-1.071677100E0,-2.046938292E0,2.825047106E0
1.293357629E1,8.652502146E-1,8.445215428E-1,-9.198722720E-1,1.519223343E0
1.294360129E1,-4.187074184E-1,2.876275785E0,-3.446816683E-1,2.926958105E0
1.295362629E1,-1.585276350E0,5.093586738E0,-4.851481605E-1,5.356593666E0
1.296365129E1,-2.204485963E0,7.018281385E0,-7.421835744E-1,7.393704648E0
1.297367629E1,-2.177377979E0,8.527227305E0,-8.014158690E-1,8.837242091E0
1.298370029E1,-2.241599702E0,9.473818429E0,-6.665697205E-1,9.758192458E0
1.299372529E1,-2.472391351E0,9.911439836E0,-4.034719133E-1,1.022311832E1
1.300375029E1,-2.081002562E0,1.014989514E1,-6.571229589E-1,1.038184731E1
1.301377529E1,-1.942254567E0,1.023721629E1,-1.316540365E0,1.050267721E1
1.302380029E1,-2.057295026E0,1.034867123E1,-2.532070080E0,1.085075288E1
1.303382529E1,-2.394103126E0,1.049109070E1,-3.727940286E0,1.138825064E1
1.304385029E1,-2.481264793E0,1.041011611E1,-3.231335092E0,1.117894087E1
1.305387529E1,-2.485994605E0,1.018787982E1,-1.686441075E0,1.062154169E1
1.306390029E1,-2.438870433E0,9.966380274E0,-3.214331388E-1,1.026548314E1
1.307392529E1,-2.378499101E0,9.849897891E0,7.150068855E-1,1.015819774E1
1.308395029E1,-2.416580700E0,9.794638195E0,1.389691518E0,1.018361636E1
1.309397429E1,-2.454528107E0,9.815342016E0,1.830926066E0,1.028192284E1
1.310399929E1,-2.494831502E0,9.809025269E0,2.199512029E0,1.035755831E1
1.311402429E1,-2.537598038E0,9.802982172E0,2.584864590E0,1.045080802E1
1.312404929E1,-2.521305356E0,9.803973860E0,2.970394907E0,1.054979289E1
1.313407429E1,-2.521724017E0,9.778793410E0,3.308918580E0,1.062698616E1
1.314409929E1,-2.497019531E0,9.790859140E0,3.624537540E0,1.073467753E1
1.315412429E1,-2.486135231E0,9.798553491E0,4.070645011E0,1.089782867E1
1.316414929E1,-2.570340399E0,9.804859128E0,4.331262429E0,1.102278307E1
1.317417429E1,-2.739755286E0,9.800552069E0,4.378698843E0,1.107836105E1
1.318419929E1,-2.941816056E0,9.759460761E0,4.185016842E0,1.101888025E1
1.319422429E1,-3.131778351E0,9.743507802E0,3.808981526E0,1.092027107E1
1.320425029E1,-3.332505956E0,9.690022151E0,3.332268559E0,1.077525587E1
1.321427429E1,-3.551539146E0,9.691038982E0,2.843129381E0,1.070574853E1
1.322429929E1,-3.722970445E0,9.673289174E0,2.435851077E0,1.064736601E1
1.323432429E1,-3.920010211E0,9.641855128E0,2.070969179E0,1.061229305E1
1.324434929E1,-4.111781927E0,9.525655165E0,1.559706184E0,1.049178442E1
1.325437429E1,-3.637913338E0,8.762225148E0,1.396944697E0,9.589705808E0
1.326439929E1,-3.631796274E0,8.138655267E0,1.197986898E0,8.992376012E0
1.327442429E1,-3.881606283E0,6.969230263E0,-4.841285522E0,9.331403072E0
1.328444929E1,-2.297408744E0,4.073232989E0,-2.006853523E1,2.060619859E1
1.329447429E1,-9.300470851E-1,6.185360134E-1,-2.482076152E1,2.484588048E1
1.330449929E1,-4.053554842E-2,4.817655462E-1,-2.431491890E1,2.431972496E1
1.331452429E1,4.249085368E-1,4.515459663E-1,-2.424536276E1,2.425328960E1
1.332454929E1,3.994407698E-1,4.846201569E-1,-2.431942359E1,2.432753118E1
1.333457329E1,1.329728468E-1,4.991224211E-1,-2.434834626E1,2.435382456E1
1.334459829E1,-3.558943987E-1,4.931448126E-1,-2.437357816E1,2.438116415E1
1.335462329E1,-9.779993697E-1,4.853282547E-1,-2.449713919E1,2.452145702E1
1.336464829E1,-1.572195105E0,4.847511345E-1,-2.473867597E1,2.479332309E1
1.337467329E1,-2.008238495E0,4.951925075E-1,-2.502659521E1,2.511192357E1
1.338469829E1,-2.175989703E0,5.226925474E-1,-2.523114251E1,2.533019327E1
1.339472329E1,-2.095404401E0,5.850759065E-1,-2.536027943E1,2.545342426E1
1.340474829E1,-1.889906199E0,7.005502295E-1,-2.558115684E1,2.566043844E1
1.341477329E1,-1.733398163E0,8.255876738E-1,-2.592379900E1,2.599479984E1
1.342479829E1,-1.670144885E0,9.002577871E-1,-2.619206925E1,2.626069953E1
1.343482329E1,-1.667925574E0,9.366362393E-1,-2.636675833E1,2.643605885E1
1.344484729E1,6.328574232E0,-9.026295932E0,-4.314470688E0,1.183805421E1
1.345487229E1,3.879302480E0,-5.843454723E0,-2.445711967E-1,7.018173972E0
1.346489729E1,1.053182942E-1,-3.316103346E0,7.772249146E-1,3.407596208E0
1.347492229E1,-2.565731916E0,-9.406526917E-1,-2.810697361E-1,2.747145418E0
1.348494729E1,-3.826373776E0,1.348198945E0,-2.410121574E0,4.718841243E0
1.349497229E1,-3.326662833E0,3.731308867E0,-3.837714744E0,6.302174698E0
1.350499729E1,-2.162631008E0,5.439347218E0,-3.719694543E0,6.935387410E0
1.351502229E1,-6.367271398E-1,6.679635213E0,-2.883250344E0,7.303155522E0
1.352504729E1,2.029691344E-1,7.689338259E0,-2.227956394E0,8.008177635E0
1.353507229E1,2.855875142E-1,8.512202300E0,-1.791274635E0,8.703321954E0
1.354509729E1,7.560318276E-2,9.244429235E0,-1.233526275E0,9.326670081E0
1.355512229E1,-4.168835257E-1,9.741543138E0,-8.224635065E-1,9.785085631E0
1.356514629E1,-9.952979918E-1,1.005920599E1,-8.105514856E-1,1.014077103E1
1.357517129E1,-1.333155082E0,1.014835849E1,-9.782345009E-1,1.028218971E1
1.358519629E1,-1.621898631E0,1.016647199E1,-1.530405786E0,1.040816265E1
1.359522129E1,-2.320932678E0,1.041537627E1,-4.053639554E0,1.141484932E1
1.360524629E1,-4.031804881E0,1.037103683E1,-7.036327647E0,1.316524828E1
1.361527129E1,-4.800451492E0,1.012549120E1,-7.066668849E0,1.324793249E1
1.362529629E1,-4.789260213E0,9.770678059E0,-4.949981461E0,1.195430799E1
1.363532129E1,-4.412395470E0,9.428146412E0,-1.813423741E0,1.056634678E1
1.364534629E1,-2.743629067E0,9.466207108E0,1.495333456E0,9.968580622E0
1.365537129E1,-2.478383577E0,9.475808821E0,3.900893909E0,1.054278480E1
1.366539629E1,-1.556710070E0,9.613058175E0,4.904609406E0,1.090364284E1
1.367542029E1,-1.035548178E0,9.797123262E0,5.353918228E0,1.121251197E1
1.368544529E1,-1.082725999E0,9.806012199E0,5.565290980E0,1.132707529E1
1.369547029E1,-1.069458959E0,9.818873734E0,5.628941431E0,1.136833345E1
1.370549529E1,-1.144554165E0,9.874611733E0,5.714884976E0,1.146638005E1
1.371552029E1,-9.677640380E-1,9.967100651E0,5.821555731E0,1.158318496E1
1.372554529E1,-7.922801793E-1,1.003684858E1,5.750736594E0,1.159469744E1
1.373557029E1,-8.051712433E-1,1.007742124E1,5.470635084E0,1.149480612E1
1.374559529E1,-7.913358539E-1,1.015819701E1,5.065221895E0,1.137856106E1
1.375562029E1,-6.729462554E-1,1.028389110E1,4.772313521E0,1.135721133E1
1.376564529E1,-6.639295565E-1,1.032698508E1,4.555762181E0,1.130674101E1
1.377567029E1,-7.529253481E-1,1.027305036E1,4.357590980E0,1.118441145E1
1.378569429E1,-7.787734035E-1,1.017643682E1,4.144194506E0,1.101547559E1
1.379571929E1,-7.200664812E-1,1.011688293E1,3.873811068E0,1.085708193E1
1.380574429E1,-4.420031641E-1,1.011577663E1,3.676722186E0,1.077230661E1
1.381576929E1,-2.490352535E-1,9.743242339E0,3.462440443E0,1.034317570E1
1.382579429E1,-4.957864384E-1,9.039611796E0,2.888172530E0,9.502732564E0
1.383581929E1,-1.888994180E-1,8.863925185E0,2.546837808E0,9.224491070E0
1.384584429E1,9.937910181E-1,8.189614921E0,2.425147018E0,8.598764515E0
1.385586929E1,3.936742896E0,-8.539490086E0,-4.321158792E1,4.422286926E1
1.386589429E1,7.061899860E0,-5.766965190E1,-7.580599344E1,9.551024982E1
1.387591929E1,6.802037317E0,-5.773282522E1,-7.586773536E1,9.557855454E1
1.388594429E1,6.591348689E0,-5.781863428E1,-7.581599452E1,9.557460631E1
1.389596829E1,6.497828321E0,-5.788912831E1,-7.569001742E1,9.551100296E1
1.390599329E1,6.530217803E0,-5.791850940E1,-7.555718740E1,9.542581434E1
1.391601829E1,2.194229069E-1,-7.559703734E0,1.005170401E1,1.257911048E1
1.392604329E1,-6.209950599E-1,-2.729738129E0,1.073805253E1,1.109697604E1
1.393606829E1,-1.369958189E0,-2.438196541E0,1.024465044E1,1.061953155E1
1.394609329E1,-5.220730349E-1,-9.353445309E0,7.456417347E0,1.197320588E1
1.395611829E1,3.969037360E-1,-1.842258262E1,2.725304770E0,1.862730171E1
1.396614329E1,4.131151414E-1,-1.834441587E1,2.336933291E0,1.849728399E1
1.397616829E1,4.231504253E-1,-1.830102953E1,2.072331434E0,1.842284711E1
1.398619329E1,4.374880904E-1,-1.827555789E1,1.906499720E0,1.837993888E1
1.399621829E1,3.185601094E0,-8.426282144E0,-6.047926008E0,1.085023936E1
1.400624229E1,2.517198856E0,-5.614977111E0,-8.097411346E-1,6.206443325E0
1.401626729E1,1.596072064E0,-3.187655806E0,-9.620435607E-1,3.692441385E0
1.402629229E1,4.602138788E-2,-9.686322033E-1,-2.429532137E0,2.615911451E0
1.403631729E1,-5.141559049E-1,1.544571251E0,-3.432448905E0,3.798915914E0
1.404634229E1,-3.434932217E-1,3.569635109E0,-3.319264351E0,4.886491403E0
1.405636729E1,-4.691127563E-1,5.191657408E0,-2.499170136E0,5.780936325E0
1.406639229E1,-5.730487686E-1,6.743168135E0,-1.613080738E0,6.957063378E0
1.407641729E1,-6.117187446E-1,8.091366495E0,-1.063516141E0,8.183854725E0
1.408644229E1,-1.156177552E0,9.036433834E0,-5.712881720E-1,9.127992833E0
1.409646729E1,-1.652092483E0,9.763814013E0,-4.005576611E-1,9.910697256E0
1.410649229E1,-1.972078729E0,1.009196443E1,-4.623323250E-1,1.029323039E1
1.411651629E1,-2.350764003E0,1.002951617E1,-4.825227606E-1,1.031261917E1
1.412654129E1,-2.812291751E0,9.976878365E0,-8.910057378E-1,1.040389245E1
1.413656629E1,-3.430833026E0,1.015760177E1,-3.400870432E0,1.124781795E1
1.414659129E1,-4.112974467E0,1.039826615E1,-6.747422569E0,1.306017646E1
1.415661629E1,-4.117335028E0,1.009169780E1,-4.297185441E0,1.171582754E1
1.416664129E1,-3.516426031E0,9.689526308E0,-2.970092460E-1,1.031214753E1
1.417666629E1,-2.954097255E0,9.555629162E0,1.686087903E0,1.014295971E1
1.418669129E1,-2.510288617E0,9.691618441E0,2.309080664E0,1.027428199E1
1.419671629E1,-2.079600692E0,9.719237180E0,2.827383707E0,1.033355742E1
1.420674092E1,-1.786554177E0,9.757806584E0,3.136255857E0,1.040397357E1
1.421676592E1,-1.577317266E0,9.779523143E0,3.380534693E0,1.046685327E1
1.422679092E1,-1.414835715E0,9.789419555E0,3.521164030E0,1.049919480E1
1.423681492E1,-1.298566170E0,9.806856537E0,3.646924775E0,1.054328078E1
1.424683992E1,-1.216608234E0,9.792047879E0,3.713104146E0,1.054284021E1
1.425686492E1,-1.119614182E0,9.820995104E0,3.791997119E0,1.058700727E1
1.426688992E1,-1.086386648E0,9.840193852E0,3.903492704E0,1.064175297E1
1.427691492E1,-1.111610806E0,9.855053966E0,3.973440313E0,1.068391292E1
1.428693992E1,-1.183865434E0,9.870722165E0,4.057547833E0,1.073761556E1
1.429696492E1,-1.267037253E0,9.929009550E0,4.199094013E0,1.085463056E1
1.430698992E1,-1.480549794E0,9.971100147E0,4.132630467E0,1.089465467E1
1.431701492E1,-1.666834337E0,9.982434390E0,3.586335926E0,1.073727798E1
1.432703992E1,-1.702841784E0,9.955881014E0,2.622485868E0,1.043535668E1
1.433706492E1,-1.628004878E0,9.939207094E0,1.730517679E0,1.021924307E1
1.434708892E1,-1.462198454E0,9.738159354E0,1.320774042E0,9.935502806E0
1.435711392E1,-1.854236429E0,8.979662633E0,1.544393203E0,9.298262424E0
1.436713892E1,-2.050057343E0,8.811227154E0,1.928066736E0,9.249751370E0
1.437716392E1,-1.863308385E0,8.592744772E0,1.791369652E0,8.973081192E0
1.438718892E1,2.314166864E0,5.115399776E0,-1.119837341E1,1.252702080E1
1.439721392E1,5.745170045E0,-2.924797150E0,-3.796408609E1,3.850757393E1
1.440723892E1,5.546126146E0,-2.958094704E0,-3.799845134E1,3.851483018E1
1.441726392E1,5.339391405E0,-2.957863154E0,-3.816751774E1,3.865252211E1
1.442728892E1,5.110156578E0,-2.996550087E0,-3.824681300E1,3.870286446E1
1.443731392E1,4.866997191E0,-3.065042617E0,-3.825848404E1,3.868841880E1
1.444733892E1,4.667356877E0,-3.132223617E0,-3.824832860E1,3.865914750E1
1.445736292E1,1.333927353E0,-7.968766755E0,5.789212443E0,9.939596897E0
1.446738792E1,-7.257020277E-1,-5.047721763E0,5.495360620E0,7.497007855E0
1.447741292E1,-1.543784800E0,-6.906315976E0,3.816507185E0,8.040286000E0
1.448743792E1,1.184008545E-1,-1.489645664E1,-2.514105972E0,1.510758644E1
1.449746292E1,4.464627478E0,-1.940815304E1,-8.345785865E0,2.159308789E1
1.450748792E1,4.546510717E0,-1.934329572E1,-8.552689590E0,2.163289967E1
1.451751292E1,4.611544326E0,-1.930298151E1,-8.675580522E0,2.165957372E1
1.452753792E1,4.686179649E0,-1.926832038E1,-8.761538100E0,2.167932195E1
1.453756292E1,2.229962135E0,-8.839090306E0,-4.865783894E-1,9.129020051E0
1.454758792E1,1.672331743E0,-5.822845627E0,-3.755828874E-1,6.069867145E0
1.455761292E1,7.302738194E-1,-3.586645244E0,-9.501781715E-1,3.781555568E0
1.456763692E1,-6.347006410E-2,-1.673737414E0,-1.933623930E0,2.558188203E0
1.457766192E1,-6.710907876E-2,7.624441767E-1,-2.288485601E0,2.413087461E0
1.458768692E1,3.229553153E-1,2.959385769E0,-2.016745463E0,3.595765083E0
1.459771192E1,7.066276793E-1,4.868427420E0,-1.678778883E0,5.198000266E0
1.460773692E1,5.608811514E-1,6.673827758E0,-1.885245237E0,6.957637115E0
1.461776192E1,4.942939366E-1,8.255866798E0,-1.973912416E0,8.502940274E0
1.462778692E1,4.596488915E-1,9.576251707E0,-1.716319177E0,9.739693290E0
1.463781192E1,1.025964153E-1,1.037320147E1,-1.463607194E0,1.047644887E1
1.464783692E1,-3.642850435E-1,1.065835381E1,-1.227915287E0,1.073503542E1
1.465786192E1,-6.405963886E-1,1.058765162E1,-1.041349347E0,1.065800821E1
1.466788692E1,-1.178547391E0,1.036758347E1,-8.238188910E-1,1.046682562E1
1.467791092E1,-1.964675715E0,1.023736247E1,-8.248526788E-1,1.045676446E1
1.468793592E1,-2.547223139E0,1.031808679E1,-2.155802922E0,1.084429559E1
1.469796092E1,-3.306870593E0,1.040239428E1,-5.113500016E0,1.205375802E1
1.470798592E1,-3.804596114E0,1.015545584E1,-5.152986263E0,1.200672738E1
1.471801092E1,-3.659761752E0,9.879881244E0,-2.439308828E0,1.081462607E1
1.472803592E1,-3.287504322E0,9.708493506E0,2.504805391E-1,1.025306156E1
1.473806092E1,-3.041302045E0,9.565775836E0,2.184035472E0,1.027246788E1
1.474808592E1,-2.920060905E0,9.553904818E0,2.952800635E0,1.041743176E1
1.475811092E1,-2.832714028E0,9.573897033E0,3.535140045E0,1.059155269E1
1.476813592E1,-2.781897047E0,9.552450616E0,4.073122476E0,1.075074838E1
1.477816092E1,-2.705629766E0,9.556323227E0,4.467386194E0,1.089042173E1
1.478818592E1,-2.465948596E0,9.595153416E0,4.880306039E0,1.104378824E1
1.479821092E1,-1.947392954E0,9.666577740E0,5.245255326E0,1.116905403E1
1.480823492E1,-1.264972016E0,9.738931772E0,5.253288816E0,1.113750374E1
1.481825992E1,-7.214038856E-1,9.739432293E0,4.809988885E0,1.088636569E1
1.482828492E1,-6.122457249E-1,9.708008187E0,4.181531024E0,1.058798704E1
1.483830992E1,-7.940764439E-1,9.697786669E0,3.589047865E0,1.037106013E1
1.484833492E1,-9.249656354E-1,9.702588403E0,3.068321736E0,1.021813982E1
1.485835992E1,2.451503634E-2,9.912199974E0,1.980905978E0,1.010822921E1
1.486838492E1,8.497577244E-1,1.013170679E1,1.185269204E0,1.023613373E1
1.487840992E1,-1.905046541E0,9.581714176E0,3.279090471E0,1.030489608E1
1.488843492E1,-1.266018668E0,9.530498414E0,2.486843621E0,9.930639178E0
1.489845992E1,-1.378175719E0,9.129545481E0,2.285977438E0,9.511764392E0
1.490848492E1,-1.616794450E0,8.851282920E0,2.388772366E0,9.309428932E0
1.491850892E1,-1.849762286E0,8.739482403E0,2.291262151E0,9.222258695E0
1.492853392E1,-1.901136800E0,8.553104158E0,1.692113166E0,8.923741303E0
1.493855892E1,-1.735136979E0,6.133735067E-1,-3.833125615E1,3.837541043E1
1.494858392E1,-9.223498835E-1,-3.177765007E1,-8.214214391E1,8.807951850E1
1.495860892E1,-1.009964124E0,-3.175159721E1,-8.222493113E1,8.814830260E1
1.496863392E1,-1.234984717E0,-3.172649629E1,-8.235045447E1,8.825923808E1
1.497865892E1,-1.508997668E0,-3.176657076E1,-8.234761974E1,8.827526590E1
1.498868392E1,-1.782805089E0,-3.183552113E1,-8.229454574E1,8.825571402E1
1.499870892E1,-2.025702666E0,-3.189844419E1,-8.226194166E1,8.825327903E1
1.500873392E1,2.594808950E0,-8.245435950E0,8.852590942E0,1.237289836E1
1.501875892E1,-1.305006586E0,-4.364754696E0,9.724299699E0,1.073853483E1
1.502878392E1,-5.129787435E0,-6.727661319E0,1.027196395E1,1.330749373E1
1.503880792E1,-4.366613818E0,-1.377008060E1,3.079763275E0,1.477049010E1
1.504883292E1,-3.208965983E0,-2.382819901E1,-7.000198871E0,2.504163163E1
1.505885792E1,-3.105476991E0,-2.372129319E1,-7.321504540E0,2.501895615E1
1.506888292E1,-3.051077127E0,-2.366733509E1,-7.504117763E0,2.501526744E1
1.507890792E1,2.600731595E0,-9.469098557E0,-7.091171021E0,1.211248689E1
1.508893292E1,3.608293390E0,-6.772083786E0,1.314338450E0,7.785138762E0
1.509895792E1,2.529914796E0,-5.569230250E0,9.612648578E-1,6.191996817E0
1.510898292E1,8.023698422E-1,-3.753780887E0,1.036611933E0,3.976082570E0
1.511900792E1,-9.107096851E-2,-1.043672445E0,9.089237992E-1,1.386971005E0
1.512903292E1,-1.979798515E-1,1.920798063E0,4.038309324E-1,1.972749513E0
1.513905792E1,-4.131038855E-1,4.093349165E0,-6.849159443E-1,4.170763965E0
1.514908292E1,-3.587902687E-1,5.542281602E0,-1.834617705E0,5.849054448E0
1.515910692E1,2.519057979E-1,6.669285641E0,-2.050530821E0,6.981941288E0
1.516913192E1,4.073505177E-1,8.011927977E0,-2.344059877E0,8.357723438E0
1.517915692E1,1.407126600E-1,9.170300574E0,-2.684496467E0,9.556188255E0
1.518918192E1,-1.992092286E-1,1.004307235E1,-2.939927405E0,1.046643014E1
1.519920692E1,-2.178849430E-1,1.079227376E1,-3.226240997E0,1.126628944E1
1.520923108E1,-8.790367797E-2,1.123115641E1,-3.405951662E0,1.173657139E1
1.521925608E1,-4.466439530E-2,1.129598566E1,-3.360557388E0,1.178535671E1
1.522928108E1,-6.619515896E-2,1.120279040E1,-3.386902603E0,1.170376024E1
1.523930608E1,-2.752453977E-1,1.108317274E1,-3.607581199E0,1.165877867E1
1.524933108E1,-6.963536829E-1,1.089885914E1,-3.942198640E0,1.161081260E1
1.525935608E1,-1.624755581E0,1.052126233E1,-4.566380725E0,1.158398138E1
1.526938108E1,-2.779099446E0,1.001017826E1,-4.924880533E0,1.149702182E1
1.527940508E1,-3.213496991E0,9.521360970E0,-3.423420804E0,1.061615220E1
1.528943008E1,-3.337505325E0,9.267369032E0,-1.104606718E0,9.911772121E0
1.529945508E1,-3.431715664E0,9.201346951E0,1.215140436E0,9.895353676E0
1.530948008E1,-2.859270328E0,9.237687981E0,3.491154950E0,1.028097607E1
1.531950508E1,-3.702596700E0,9.030804135E0,5.027349479E0,1.097902038E1
1.532953008E1,-4.141636056E0,8.921257719E0,5.562687215E0,1.129979989E1
1.533955508E1,-3.390117402E0,9.040314631E0,5.237124188E0,1.098397261E1
1.534958008E1,-2.596493240E0,9.035842681E0,4.985582818E0,1.064162892E1
1.535960508E1,-2.123344882E0,8.990419171E0,4.687862770E0,1.035916443E1
1.536963008E1,-1.577011749E0,9.173207225E0,4.642520828E0,1.040133148E1
1.537965508E1,-1.377428884E0,9.284825310E0,4.886385974E0,1.058215759E1
1.538968008E1,-1.029196640E0,9.387307119E0,4.854398780E0,1.061819044E1
1.539970408E1,-7.995489992E-1,9.417357715E0,4.805913961E0,1.060295779E1
1.540972908E1,-8.322682638E-1,9.456314204E0,4.401944742E0,1.046382656E1
1.541975408E1,-1.139586809E0,9.362458207E0,3.661174439E0,1.011723678E1
1.542977908E1,-1.611407703E0,9.191365753E0,2.847427962E0,9.756315144E0
1.543980408E1,-1.960004521E0,9.051108007E0,2.250354300E0,9.530386579E0
1.544982908E1,-2.232972428E0,8.877024118E0,1.990387238E0,9.367463072E0
1.545985408E1,-2.515649929E0,8.610804482E0,1.834556602E0,9.156421043E0
1.546987908E1,-3.138390383E0,6.727932630E0,1.532261400E0,7.580395548E0
1.547990408E1,-1.364484464E0,-1.231953959E0,-3.465352356E-2,1.838675957E0
1.548992908E1,-2.426941674E0,-3.050517666E1,-4.309968156E1,5.285866438E1
1.549995408E1,1.269546585E0,-6.446788678E1,-3.979486802E1,7.577170775E1
1.550997908E1,9.729313686E-1,-6.448514308E1,-3.997426528E1,7.587636099E1
1.552000408E1,6.590405533E-1,-6.455432734E1,-4.003983361E1,7.596633325E1
1.553002808E1,4.569856310E-1,-6.462958334E1,-4.000148523E1,7.600862253E1
1.554005308E1,4.120474398E-2,-1.010468330E1,8.957197630E0,1.350324819E1
1.555007808E1,-1.040363214E0,-7.680892541E0,8.216470013E0,1.129552324E1
1.556010308E1,2.032684827E0,-1.022888751E1,4.660213333E0,1.142276392E1
1.557012808E1,5.850267899E0,-1.502969130E1,-8.688392356E-1,1.615153667E1
1.558015308E1,5.897718054E0,-1.496076432E1,-1.100423474E0,1.611888579E1
1.559017808E1,5.944992793E0,-1.491144306E1,-1.267173201E0,1.610278862E1
1.560020308E1,6.000112156E0,-1.486973370E1,-1.400264307E0,1.609568471E1
1.561022808E1,2.393566498E0,-8.753230961E0,-2.535479007E0,9.422147666E0
1.562025308E1,7.583375309E-1,-5.615582882E0,-1.995205782E0,6.007552999E0
1.563027808E1,-3.672112826E-1,-2.830794972E0,-2.403869731E0,3.731867359E0
1.564030208E1,-1.305918606E0,-4.948200399E-1,-3.521450543E0,3.788256090E0
1.565032708E1,-1.556913700E0,1.767454832E0,-4.416479166E0,5.005313684E0
1.566035208E1,-1.132405697E0,4.305481471E0,-5.218164006E0,6.859209062E0
1.567037708E1,-7.668164322E-1,6.233634161E0,-4.474263690E0,7.711370686E0
1.568040208E1,-3.829891169E-1,7.371239203E0,-3.337985966E0,8.100864050E0
1.569042708E1,-1.783118646E-1,8.427642791E0,-2.636441710E0,8.832201482E0
1.570045208E1,-5.065860996E-1,9.210066319E0,-1.752532153E0,9.388999948E0
1.571047708E1,-8.733851534E-1,9.841343415E0,-1.034266103E0,9.934009674E0
1.572050208E1,-1.065791439E0,1.035812033E1,-1.046281985E0,1.046524124E1
1.573052708E1,-1.136631480E0,1.078678205E1,-1.506931554E0,1.095068221E1
1.574055208E1,-1.342586349E0,1.102621033E1,-3.098956468E0,1.153184216E1
1.575057708E1,-2.279897503E0,1.091069391E1,-5.083859310E0,1.225099178E1
1.576060208E1,-3.032758386E0,1.076455094E1,-5.861468825E0,1.262655920E1
1.577062608E1,-2.944812169E0,1.056075910E1,-4.124946349E0,1.171395466E1
1.578065108E1,-2.614126396E0,1.021018578E1,5.292304654E-1,1.055280225E1
1.579067608E1,-2.087412572E0,1.014428883E1,5.624791662E0,1.178567640E1
1.580070108E1,-1.007016835E0,1.037192912E1,8.746899596E0,1.360511849E1
1.581072608E1,1.425559216E0,1.079726962E1,8.106871557E0,1.357698850E1
1.582075108E1,1.446594867E0,1.091043663E1,7.379917055E0,1.325116749E1
1.583077608E1,3.345294401E-1,1.035078559E1,6.320714990E0,1.213268767E1
1.584080108E1,2.096650735E-2,9.742741817E0,5.084652193E0,1.098977459E1
1.585082608E1,-3.682386383E-2,9.676643722E0,4.396763231E0,1.062874953E1
1.586085108E1,9.332214653E-2,9.792402220E0,4.086252107E0,1.061118780E1
1.587087608E1,-1.001207042E-1,9.896583230E0,3.917453223E0,1.064419201E1
1.588090108E1,-5.745623204E-1,9.806218021E0,3.951755037E0,1.058812550E1
1.589092508E1,-1.058100742E0,9.641134751E0,3.708962563E0,1.038400018E1
1.590095008E1,-1.351563287E0,9.585568660E0,3.314044834E0,1.023194718E1
1.591097508E1,-1.379465176E0,9.565628486E0,2.868843682E0,1.008139061E1
1.592100008E1,-1.379616473E0,9.584769931E0,2.577000962E0,1.002058333E1
1.593102508E1,-1.426602652E0,9.640790350E0,2.493088740E0,1.005959866E1
1.594105008E1,-1.220479091E0,9.682388611E0,2.298471183E0,1.002602554E1
1.595107508E1,-9.372243230E-1,9.561636592E0,2.156078618E0,9.846418575E0
1.596110008E1,-8.065264817E-1,9.250631962E0,2.100968611E0,9.520438318E0
1.597112508E1,-4.309368700E-1,8.956872525E0,1.987873520E0,9.184928587E0
1.598115008E1,3.880047123E-1,7.706960598E0,-2.025239859E0,7.978056518E0
1.599117508E1,6.335861617E-1,-7.065898186E-1,-1.663940170E1,1.666644502E1
1.600120008E1,-6.477738458E-1,-2.488053878E1,-3.367248942E1,4.187239382E1
1.601122408E1,-8.595959571E-1,-2.493831629E1,-3.366683165E1,4.190601482E1
1.602124908E1,-1.133731261E0,-2.502339093E1,-3.365150493E1,4.195091446E1
1.603127408E1,-1.371522611E0,-2.510896377E1,-3.362393882E1,4.198702653E1
1.604129908E1,-1.538251580E0,-2.518072781E1,-3.358047295E1,4.200099326E1
1.605132408E1,-1.595853963E0,-2.523477947E1,-3.347606975E1,4.195221199E1
1.606134908E1,1.087295013E0,-1.037762665E1,4.490071052E-1,1.044408697E1
1.607137408E1,1.136006705E0,-8.350434401E0,5.426838269E0,1.002351433E1
1.608139908E1,3.040059511E0,-1.297903184E1,4.143238778E0,1.395935732E1
1.609142408E1,2.328479094E0,-1.773204165E1,-2.948271382E-1,1.788670006E1
1.610144908E1,2.422069628E0,-1.765909530E1,-4.584462655E-1,1.783031803E1
1.611147408E1,2.506467169E0,-1.760309418E1,-5.820403245E-1,1.779016788E1
1.612149908E1,2.599704239E0,-1.754968805E1,-6.962879017E-1,1.775485369E1
1.613152308E1,3.358911982E0,-8.433163732E0,-2.634337297E-1,9.081296028E0
1.614154808E1,3.280474800E0,-5.809678282E0,-1.450723439E-2,6.671887822E0
1.615157308E1,3.114194312E0,-3.931038060E0,-6.446930940E-1,5.056371785E0
1.616159808E1,2.653571421E0,-1.949642377E0,-1.177583624E0,3.497034440E0
1.617162308E1,2.227044959E0,4.341961080E-1,-1.211142987E0,2.571988112E0
1.618164808E1,1.699551848E0,2.751007960E0,-1.271701723E0,3.474729709E0
1.619167308E1,1.077114718E0,4.903676190E0,-1.578965743E0,5.263017111E0
1.620169808E1,5.560950592E-1,6.971954480E0,-1.682000699E0,7.193505220E0
1.621172396E1,2.242620626E-1,8.713193321E0,-1.556526468E0,8.853971198E0
1.622174896E1,5.407329619E-2,9.953847352E0,-1.821646242E0,1.011930808E1
1.623177396E1,1.693603621E-1,1.070170273E1,-1.932394845E0,1.087608726E1
1.624179896E1,-2.203508601E-1,1.084440753E1,-1.652821923E0,1.097185260E1
1.625182296E1,-6.836400819E-1,1.087459086E1,-1.517158334E0,1.100117537E1
1.626184796E1,-9.007534848E-1,1.091649902E1,-1.787226022E0,1.109844514E1
1.627187296E1,-1.217750049E0,1.094938961E1,-2.891466851E0,1.139002320E1
1.628189796E1,-1.689858772E0,1.096823051E1,-4.484966433E0,1.196965443E1
1.629192296E1,-2.154548402E0,1.076480822E1,-5.105182936E0,1.210727333E1
1.630194796E1,-2.482558782E0,1.042690698E1,-4.832992709E0,1.175760629E1
1.631197296E1,-2.751356454E0,1.007782820E1,-4.319016606E0,1.130426858E1
1.632199796E1,-2.905019820E0,9.828953165E0,-3.750957266E0,1.091407994E1
1.633202296E1,-2.695713181E0,9.691149495E0,-2.736430267E0,1.042464861E1
1.634204796E1,-2.709313805E0,9.567182676E0,-8.663445210E-1,9.981078021E0
1.635207296E1,-2.503499415E0,9.606753123E0,2.917776690E0,1.034749417E1
1.636209796E1,-1.636547953E0,9.976589513E0,6.419042938E0,1.197558933E1
1.637212196E1,-6.899043502E-1,1.030906453E1,7.078568518E0,1.252433279E1
1.638214696E1,-6.433327393E-1,1.007127231E1,6.045674829E0,1.176412288E1
1.639217196E1,-8.047426423E-1,9.652328076E0,4.987789557E0,1.089463596E1
1.640219696E1,-1.187035210E0,9.226891097E0,4.303215090E0,1.024998693E1
1.641222196E1,-1.527370643E0,9.129777616E0,3.802541695E0,1.000724856E1
1.642224696E1,-1.635381580E0,9.228359917E0,3.481166444E0,9.997780728E0
1.643227196E1,-1.696528106E0,9.295019930E0,3.164510480E0,9.964423199E0
1.644229696E1,-1.782204141E0,9.285481952E0,2.897283661E0,9.888916993E0
1.645232196E1,-1.877448268E0,9.161781181E0,2.626720129E0,9.714046790E0
1.646234696E1,-1.903093425E0,9.079333686E0,2.378221504E0,9.576638361E0
1.647237196E1,-1.783971755E0,9.135272244E0,2.308284127E0,9.589782574E0
1.648239696E1,-1.802522923E0,9.122087942E0,2.341352617E0,9.588717818E0
1.649242096E1,-2.065898766E0,8.986536035E0,2.296736168E0,9.502671448E0
1.650244596E1,-2.255309669E0,8.780797074E0,2.210320168E0,9.331362934E0
1.651247096E1,-1.420500790E0,7.479140797E0,1.205549541E0,7.707705187E0
1.652249596E1,-8.806270762E-1,4.285284019E-1,8.240690057E-1,1.279933734E0
1.653252096E1,-4.174359414E0,-2.218075067E1,-2.219688431E1,3.165616291E1
1.654254596E1,1.302526197E0,-5.330007910E1,-4.132110357E1,6.745389987E1
1.655257096E1,1.287130771E0,-5.334225858E1,-4.118458278E1,6.740343548E1
1.656259596E1,9.676060170E-1,-5.341182173E1,-4.119985103E1,6.746248355E1
1.657262096E1,6.100555041E-1,-5.349796759E1,-4.123637040E1,6.754881900E1
1.658264596E1,4.306614661E-1,-5.355405408E1,-4.123028462E1,6.758815390E1
1.659267096E1,-5.044194138E0,-8.922463415E0,3.432416452E0,1.080905780E1
1.660269496E1,1.443966982E-1,-6.634518097E0,1.139916913E1,1.319009999E1
1.661271996E1,3.300226694E0,-9.099636388E0,1.109335391E1,1.472268249E1
1.662274496E1,6.143338534E0,-1.386223505E1,3.036840619E0,1.546365319E1
1.663276996E1,6.276757962E0,-1.378054243E1,2.812054646E0,1.540158081E1
1.664279496E1,6.387321793E0,-1.372483250E1,2.660107731E0,1.537026610E1
1.665281996E1,6.466115947E0,-1.368546203E1,2.538539439E0,1.534753104E1
1.666284496E1,6.525263457E0,-1.365210366E1,2.411315867E0,1.532231842E1
1.667286996E1,1.121822968E0,-8.072508055E0,-1.364964520E0,8.263594933E0
1.668289496E1,-2.186241188E0,-5.772896957E0,-2.423069794E0,6.631535044E0
1.669291996E1,-4.247690515E0,-3.353698019E0,-3.385477052E0,6.383699553E0
1.670294496E1,-3.290663865E0,-9.888682473E-1,-3.665341165E0,5.024047665E0
1.671296896E1,-1.693968488E0,1.165688049E0,-3.558369863E0,4.109787579E0
1.672299396E1,-4.847121044E-1,2.993435276E0,-2.494514583E0,3.926602040E0
1.673301896E1,4.075958084E-1,4.641655440E0,-1.728314155E0,4.969725283E0
1.674304396E1,1.105595921E0,6.180445549E0,-1.427508824E0,6.438791111E0
1.675306896E1,1.285545006E0,7.703920630E0,-1.171637006E0,7.897832127E0
1.676309396E1,1.084828511E0,9.058166181E0,-9.841717637E-1,9.175828111E0
1.677311896E1,7.188584465E-1,1.001687215E1,-5.834293306E-1,1.005956634E1
1.678314396E1,2.005035098E-1,1.071760481E1,-2.660915450E-1,1.072278226E1
1.679316896E1,-2.767275207E-1,1.093367580E1,3.527508259E-2,1.093723407E1
1.680319396E1,-6.229364817E-1,1.085714511E1,1.623900425E-1,1.087621351E1
1.681321896E1,-9.715793462E-1,1.086241813E1,-1.789002407E-1,1.090724985E1
1.682324396E1,-1.354357525E0,1.107543570E1,-2.592679979E0,1.145519750E1
1.683326796E1,-1.876867493E0,1.143252750E1,-6.714237281E0,1.339053019E1
1.684329296E1,-2.658254748E0,1.092430740E1,-4.131076570E0,1.197800501E1
1.685331796E1,-2.783766986E0,1.017627544E1,5.908633344E-1,1.056669579E1
1.686334296E1,-2.769883942E0,9.800600016E0,3.302055995E0,1.070642758E1
1.687336796E1,-2.878447441E0,9.772779549E0,4.138223037E0,1.099625253E1
1.688339296E1,-2.783735996E0,9.742733046E0,4.550669256E0,1.110759308E1
1.689341796E1,-2.491951749E0,9.737257714E0,4.464901128E0,1.099815227E1
1.690344296E1,-2.269957090E0,9.747503205E0,4.131917107E0,1.082770811E1
1.691346796E1,-2.458579350E0,9.713468902E0,4.103927655E0,1.082766423E1
1.692349296E1,-2.258657638E0,9.783697470E0,3.902911198E0,1.077288199E1
1.693351796E1,-2.105423897E0,9.838150835E0,3.716969740E0,1.072557158E1
1.694354296E1,-1.879819460E0,9.901490214E0,3.552793958E0,1.068623295E1
1.695356696E1,-1.873997826E0,9.945910342E0,3.621099962E0,1.074920301E1
1.696359196E1,-1.835375943E0,9.991211060E0,3.734444729E0,1.082307631E1
1.697361696E1,-1.728629905E0,1.006865392E1,3.736826592E0,1.087795138E1
1.698364196E1,-1.560688954E0,1.015085876E1,3.457470310E0,1.083650241E1
1.699366696E1,-1.595659836E0,1.013677632E1,3.127345870E0,1.072756528E1
1.700369196E1,-1.580864626E0,1.009329058E1,2.576848058E0,1.053630835E1
1.701371696E1,-1.579212934E0,9.988645302E0,1.738055763E0,1.026098369E1
1.702374196E1,-1.659504414E0,9.723495122E0,1.068824244E0,9.921829345E0
1.703376696E1,-1.861172981E0,9.327285451E0,6.535444629E-1,9.533590043E0
1.704379196E1,-3.520687482E0,6.935915751E0,-1.595459685E1,1.774968531E1
1.705381696E1,-4.676609511E0,2.464185660E0,-2.939832446E1,2.986979024E1
1.706384196E1,-4.718414471E0,2.326845090E0,-2.896985921E1,2.944368160E1
1.707386596E1,-5.018623679E0,2.262742649E0,-2.899004614E1,2.950812368E1
1.708389096E1,-5.431285661E0,2.205638157E0,-2.917000706E1,2.975320177E1
1.709391596E1,-5.760374560E0,2.139525443E0,-2.929960241E1,2.993703702E1
1.710394096E1,-5.901338650E0,2.071274988E0,-2.923579993E1,2.989729044E1
1.711396596E1,-5.874952505E0,2.021674812E0,-2.904910536E1,2.970610641E1
1.712399096E1,-5.782882832E0,2.022601596E0,-2.895470089E1,2.959573203E1
1.713401596E1,3.474440099E0,-7.415856382E0,4.407098770E0,9.299955884E0
1.714404096E1,1.055179766E-1,-1.172917546E0,-7.113218533E0,7.210044903E0
1.715406596E1,1.358068168E0,-8.669338619E0,-8.182832735E0,1.199835542E1
1.716409096E1,5.351956487E0,-1.662959358E1,8.081205788E-1,1.748827835E1
1.717411596E1,5.438834417E0,-1.658145930E1,7.294284582E-1,1.746590331E1
1.718413996E1,5.553541585E0,-1.652025182E1,6.242241848E-1,1.743990253E1
1.719416496E1,5.695956954E0,-1.645104768E1,5.041960502E-1,1.741651828E1
1.720418996E1,3.613034897E0,-9.329756484E0,-1.108644805E0,1.006615470E1
1.721421383E1,2.996914954E0,-7.523796567E0,-4.237959579E-1,8.109785265E0
1.722423883E1,2.010133870E0,-5.456223451E0,-2.223530929E-1,5.818973571E0
1.723426383E1,1.062648561E0,-3.085087457E0,-2.587264287E-1,3.273213398E0
1.724428883E1,2.612955491E-1,-5.283134758E-1,-1.399576382E-1,6.057876140E-1
1.725431383E1,-4.684960212E-1,1.959407812E0,2.129310358E-1,2.025859601E0
1.726433883E1,-6.650875975E-1,4.570460327E0,6.199288201E-1,4.660017259E0
1.727436383E1,-8.582439347E-1,6.923924866E0,3.635329454E-1,6.986377775E0
1.728438883E1,-8.400668415E-1,8.515572635E0,2.275104833E-1,8.559932863E0
1.729441383E1,-5.399218069E-1,9.638093029E0,-1.589695676E-1,9.654513148E0
1.730443783E1,-3.753726800E-1,1.034019394E1,-5.669004214E-1,1.036252341E1
1.731446283E1,-5.243622199E-1,1.065201075E1,-5.113260718E-1,1.067715988E1
1.732448783E1,-6.448454140E-1,1.073099728E1,-6.306373378E-1,1.076883613E1
1.733451283E1,-7.707694423E-1,1.076343997E1,-1.120087002E0,1.084897785E1
1.734453783E1,-9.654868399E-1,1.083491867E1,-2.165635600E0,1.109133017E1
1.735456283E1,-1.052171958E0,1.100898677E1,-3.405228946E0,1.157153576E1
1.736458783E1,-1.369366158E0,1.102945554E1,-4.150623811E0,1.186388347E1
1.737461283E1,-2.364791034E0,1.088904752E1,-4.915999782E0,1.217910696E1
1.738463783E1,-2.857128785E0,1.079651065E1,-6.054004773E0,1.270349562E1
1.739466283E1,-2.987800314E0,1.043180695E1,-4.299900888E0,1.167213325E1
1.740468783E1,-2.828553150E0,9.992208595E0,-1.149076986E0,1.044822107E1
1.741471283E1,-2.589976518E0,9.795298346E0,1.167122224E0,1.019892261E1
1.742473683E1,-2.358847632E0,9.825382855E0,3.089530756E0,1.056633857E1
1.743476183E1,-2.057883987E0,9.966463305E0,5.280228692E0,1.146499422E1
1.744478683E1,-1.690852068E0,1.011494867E1,7.520068967E0,1.271702027E1
1.745481183E1,-1.515325525E0,1.013725697E1,8.250744052E0,1.315807614E1
1.746483683E1,-1.395122997E0,1.002644170E1,6.767467993E0,1.217680272E1
1.747486183E1,-1.160637078E0,9.881134887E0,5.369567716E0,1.130558103E1
1.748488683E1,-1.076114991E0,9.762886645E0,4.531416714E0,1.081691807E1
1.749491183E1,-1.044437407E0,9.736178318E0,3.892746106E0,1.053743280E1
1.750493683E1,-9.573666653E-1,9.802355350E0,3.503817095E0,1.045368144E1
1.751496183E1,-1.078980126E0,9.717347944E0,3.239001376E0,1.029962034E1
1.752498683E1,-1.138697594E0,9.679931611E0,2.820621694E0,1.014660608E1
1.753501183E1,-1.220233654E0,9.554881888E0,2.382070434E0,9.922650735E0
1.754503583E1,-5.498066711E-1,9.502168654E0,1.615500754E0,9.654187651E0
1.755506083E1,-1.509223955E0,9.195540665E0,2.007565480E0,9.532368238E0
1.756508583E1,-1.695767676E0,9.136072728E0,1.710589783E0,9.448257528E0
1.757511083E1,-1.460187304E0,8.831937992E0,-5.750805299E-1,8.970283901E0
1.758513583E1,-9.436255623E-1,5.402347206E0,-1.764513332E1,1.847773023E1
1.759516083E1,-1.477019976E0,7.863744915E-1,-2.006846741E1,2.013810708E1
1.760518583E1,-1.542815624E0,7.512157685E-1,-1.999638293E1,2.006987632E1
1.761521083E1,-1.626110088E0,7.931303644E-1,-2.018957260E1,2.027047438E1
1.762523583E1,-1.713804728E0,8.090657812E-1,-2.030980772E1,2.039803922E1
1.763526083E1,-1.851596412E0,7.512917823E-1,-2.021517639E1,2.031369501E1
1.764528583E1,-1.983859406E0,6.735249835E-1,-2.006215241E1,2.017124918E1
1.765530983E1,-2.073425155E0,6.405326539E-1,-2.002924896E1,2.014646837E1
1.766533483E1,1.738881828E0,-9.985472603E0,5.597882191E0,1.157884529E1
1.767535983E1,-7.388446681E-1,-6.397957293E0,7.099959387E0,9.585884011E0
1.768538483E1,-1.580970607E0,-7.132738293E0,2.355437974E0,7.676165167E0
1.769540983E1,1.941992611E0,-1.231648617E1,-1.043276589E0,1.251221775E1
1.770543483E1,5.284901787E0,-1.646293624E1,-2.058274581E0,1.741249410E1
1.771545983E1,5.370084025E0,-1.640474007E1,-2.242243188E0,1.740634809E1
1.772548483E1,5.457792259E0,-1.635077729E1,-2.425899847E0,1.740748128E1
1.773550983E1,1.920005765E0,-7.875291996E0,-3.206449342E0,8.717107521E0
1.774553483E1,3.008842689E-1,-4.808457792E0,-3.340143589E0,5.862453145E0
1.775555983E1,-6.501462074E-1,-2.571109600E0,-3.570926174E0,4.448011736E0
1.776558383E1,-4.813176495E-1,-8.825594348E-1,-3.178480940E0,3.333664488E0
1.777560883E1,-1.792167212E-1,9.136268610E-1,-2.185720786E0,2.375754202E0
1.778563383E1,1.337164664E-1,3.250636166E0,-2.333772286E0,4.003874206E0
1.779565883E1,6.157093231E-1,5.448425605E0,-2.089920005E0,5.867896145E0
1.780568383E1,8.696862048E-1,7.391527871E0,-1.292290792E0,7.553876744E0
1.781570883E1,5.716226327E-1,8.846536151E0,-8.836042591E-1,8.908911874E0
1.782573383E1,3.030107550E-1,9.724650532E0,-5.525420352E-1,9.745047265E0
1.783575883E1,1.398547272E-1,1.038759498E1,-1.134058120E0,1.045025247E1
1.784578383E1,-1.630544324E-1,1.090950341E1,-1.921747066E0,1.107867155E1
1.785580883E1,-4.999805000E-1,1.104305850E1,-2.360737306E0,1.130363668E1
1.786583383E1,-1.609992969E0,1.105116508E1,-3.452665068E0,1.168936367E1
1.787585883E1,-2.241779212E0,1.100351144E1,-4.300378021E0,1.202481140E1
1.788588283E1,-2.225614292E0,1.070733126E1,-3.104830581E0,1.136838927E1
1.789590783E1,-2.116328077E0,1.035032483E1,-1.023463737E0,1.061393172E1
1.790593283E1,-1.916549330E0,1.012784061E1,6.863344789E-1,1.033041005E1
1.791595783E1,-1.730576443E0,1.000982976E1,1.991373517E0,1.035167403E1
1.792598283E1,-1.607430427E0,9.965760469E0,2.821935563E0,1.048158073E1
1.793600783E1,-1.429372478E0,1.001807434E1,3.462466171E0,1.069549396E1
1.794603283E1,-9.904902649E-1,1.016395769E1,4.065572551E0,1.099163259E1
1.795605783E1,-1.048847231E-1,1.041212054E1,4.472503678E0,1.133254358E1
1.796608283E1,3.706972463E-1,1.052049985E1,4.454301295E0,1.143062263E1
1.797610783E1,2.109517533E-1,1.048581066E1,4.082984098E0,1.125466503E1
1.798613283E1,-9.025279686E-2,1.038287277E1,3.678504125E0,1.101560643E1
1.799615783E1,-7.074781568E-1,1.020426489E1,3.337407092E0,1.075945321E1
1.800618183E1,-1.221557171E0,1.007648802E1,2.973588656E0,1.057686354E1
1.801620683E1,-1.393753725E0,1.005341257E1,2.705629474E0,1.050400327E1
1.802623183E1,-1.409151637E0,1.006274239E1,2.534981993E0,1.047237444E1
1.803625683E1,-1.472964201E0,1.000207870E1,2.354814223E0,1.038057570E1
1.804628183E1,-1.689701336E0,9.811279371E0,2.115963503E0,1.017809388E1
1.805630683E1,-1.903134063E0,9.623448678E0,1.746714174E0,9.964120338E0
1.806633183E1,-2.091188412E0,9.568370830E0,1.255579634E0,9.874374387E0
1.807635683E1,-2.110350322E0,9.480515245E0,7.060878351E-1,9.738188118E0
1.808638183E1,-2.063187996E0,9.254081234E0,3.542463975E-1,9.487900437E0
1.809640683E1,-2.127801630E0,9.037192803E0,3.779888704E-2,9.284385940E0
1.810643183E1,-3.437561125E0,7.839982415E0,-5.849503083E0,1.036816460E1
1.811645683E1,-4.707946494E0,5.892638578E0,-5.706800616E0,9.458092982E0
1.812648083E1,-7.014414622E0,-9.801810390E-1,-1.638526651E1,1.785048251E1
1.813650583E1,-7.202023121E0,-2.560568240E1,-5.759390941E1,6.343956580E1
1.814653083E1,-7.021207332E0,-2.566771902E1,-5.737752501E1,6.324800019E1
1.815655583E1,-7.167204705E0,-2.569178148E1,-5.732799675E1,6.322923114E1
1.816658083E1,-7.440276693E0,-2.574836148E1,-5.722291995E1,6.318859394E1
1.817660583E1,-7.761705154E0,-2.579909192E1,-5.717526280E1,6.320480905E1
1.818663083E1,-8.103516424E0,-2.582550028E1,-5.723447873E1,6.331199727E1
1.819665583E1,-8.443753624E0,-2.582170193E1,-5.741716445E1,6.351998142E1
1.820668083E1,-8.729394202E0,-2.578816230E1,-5.770578770E1,6.380587412E1
1.821670604E1,-8.899118407E0,-2.573726112E1,-5.801735074E1,6.409066941E1
1.822673104E1,-8.850544417E0,-2.566900306E1,-5.823373981E1,6.425261324E1
1.823675504E1,-8.594114774E0,-2.558766596E1,-5.833392835E1,6.427623709E1
1.824678004E1,-8.335316425E0,-2.551652405E1,-5.842568753E1,6.429721194E1
1.825680504E1,-8.169505761E0,-2.545560542E1,-5.857788354E1,6.439019422E1
1.826683004E1,-8.074250525E0,-2.540262965E1,-5.877286245E1,6.453476951E1
1.827685504E1,3.310481833E0,-8.966820978E0,-5.949344290E0,1.125867958E1
1.828688004E1,-5.639564945E-1,-7.499600789E0,-5.247281971E0,9.170388596E0
1.829690504E1,-3.188502775E0,-6.269895085E0,-5.385330055E0,8.858888989E0
1.830693004E1,-3.648330445E0,-3.642338219E0,-3.252754612E0,6.095683334E0
1.831695504E1,-5.910926914E-1,-8.915694094E-1,-2.457939080E0,2.680625133E0
1.832698004E1,2.275496011E0,8.989889413E-1,-2.035404074E0,3.182598460E0
1.833700504E1,3.334635512E0,2.777906907E0,-1.168444426E0,4.494643829E0
1.834702904E1,3.964183586E0,4.727238212E0,-1.431631111E0,6.333332477E0
1.835705404E1,3.922592926E0,6.036194739E0,-1.478145711E0,7.348965705E0
1.836707904E1,3.093114515E0,7.289554769E0,-2.343927730E0,8.258266364E0
1.837710404E1,2.297786475E0,8.404029980E0,-3.104563948E0,9.249100491E0
1.838712904E1,1.846067869E0,9.225114713E0,-2.079998449E0,9.635201170E0
1.839715404E1,1.369062103E0,9.862157164E0,-1.109631962E0,1.001837103E1
1.840717904E1,7.663051663E-1,1.038206117E1,-1.137298647E0,1.047224265E1
1.841720404E1,5.472330192E-1,1.067833257E1,-1.757671856E0,1.083585072E1
1.842722904E1,3.904250211E-1,1.084375966E1,-2.238355082E0,1.107925037E1
1.843725404E1,-2.713159226E-1,1.072608795E1,-1.866481522E0,1.089065326E1
1.844727904E1,-1.391028776E0,1.026385620E1,-4.152505445E-1,1.036600879E1
1.845730404E1,-2.050689865E0,9.880656585E0,9.346331294E-1,1.013440884E1
1.846732804E1,-2.009729681E0,9.842975957E0,1.834962837E0,1.021226115E1
1.847735304E1,-2.038752336E0,9.807927747E0,2.500561774E0,1.032495845E1
1.848737804E1,-2.226540491E0,9.815501060E0,3.077445731E0,1.052483804E1
1.849740304E1,-2.453322703E0,9.811412687E0,3.493672761E0,1.069992339E1
1.850742804E1,-2.468541836E0,9.867882757E0,3.773851747E0,1.084945925E1
1.851745304E1,-2.263720304E0,9.950177640E0,3.938595586E0,1.093814426E1
1.852747804E1,-1.887963900E0,1.007659795E1,4.009045179E0,1.100793701E1
1.853750304E1,-4.937220789E-1,1.044510351E1,3.865114211E0,1.114823111E1
1.854752804E1,7.946768068E-1,1.090078405E1,4.351695524E0,1.176417689E1
1.855755304E1,6.709520625E-1,1.097244986E1,5.062125210E0,1.210247678E1
1.856757804E1,5.039012043E-1,1.074774136E1,4.823900873E0,1.179143250E1
1.857760304E1,-1.703168204E-1,1.031982575E1,4.727969699E0,1.135259921E1
1.858762704E1,-5.775851847E-1,1.002114179E1,4.572535504E0,1.103018442E1
1.859765204E1,-9.069804771E-1,9.877635913E0,4.009491906E0,1.069889388E1
1.860767704E1,-1.205756532E0,9.789637656E0,2.952498919E0,1.029602370E1
1.861770204E1,-1.224725046E0,9.713308103E0,1.938030392E0,9.980193763E0
1.862772704E1,-1.412214408E0,9.486426196E0,1.916668467E0,9.780605784E0
1.863775204E1,-1.917679158E0,8.750086328E0,2.214879389E0,9.227523764E0
1.864777704E1,-2.483576197E0,8.398312572E0,2.161473844E0,9.020630464E0
1.865780204E1,-3.004310512E0,8.342066451E0,2.364479670E0,9.176421875E0
1.866782704E1,-4.074560307E0,7.719250860E0,6.457631345E-1,8.752478824E0
1.867785204E1,-7.938538989E0,3.648488320E0,-1.180407245E1,1.468563906E1
1.868787704E1,-8.150909277E0,-5.719135317E0,-2.983492904E1,3.145264411E1
1.869790204E1,-7.465047837E0,-5.762462016E0,-2.958049330E1,3.104735885E1
1.870792604E1,-7.281822411E0,-5.823547878E0,-2.941112519E1,3.085373450E1
1.871795104E1,-7.428088172E0,-5.939288834E0,-2.913952670E1,3.065230272E1
1.872797604E1,-7.785403334E0,-6.070369375E0,-2.888786020E1,3.052818953E1
1.873800104E1,-8.262503972E0,-6.165477262E0,-2.878636657E1,3.057673923E1
1.874802604E1,-8.752341599E0,-6.197964976E0,-2.887615641E1,3.080341965E1
1.875805104E1,5.061130013E0,-8.090331538E0,1.524354853E1,1.798427850E1
1.876807604E1,2.426815228E-1,-5.147912049E0,1.595419574E1,1.676592540E1
1.877810104E1,4.536397080E-1,-8.283950390E0,1.019500173E1,1.314411211E1
1.878812604E1,5.983334447E-1,-1.802702199E1,-1.352996293E0,1.808762350E1
1.879815104E1,8.232707146E-1,-1.790297448E1,-1.604976789E0,1.799361610E1
1.880817604E1,9.815523572E-1,-1.783650801E1,-1.732339379E0,1.794729681E1
1.881820004E1,1.057932781E0,-1.780184221E1,-1.811490798E0,1.792501901E1
1.882822504E1,9.152349038E0,-8.602922435E0,-2.892840362E0,1.288969715E1
1.883825004E1,6.326071039E0,-5.041682174E0,1.176014524E0,8.174395641E0
1.884827504E1,3.637987890E0,-2.406677710E0,1.952013423E0,4.778850269E0
1.885830004E1,4.582473139E-1,-1.192878771E0,1.119834183E0,1.699111227E0
1.886832504E1,-1.657841173E0,3.680038726E-1,3.352397306E-1,1.730967904E0
1.887835004E1,-1.406098659E0,2.094283782E0,-3.741586518E-1,2.550124055E0
1.888837504E1,-5.422304338E-1,3.740084369E0,-6.084635997E-1,3.827854867E0
1.889840004E1,4.021252996E-1,5.298925164E0,-9.010558590E-1,5.390010604E0
1.890842504E1,8.992128897E-1,6.455362333E0,-1.143965496E0,6.617321492E0
1.891845004E1,7.564003484E-1,7.655537844E0,-1.227214644E0,7.790087096E0
1.892847504E1,4.737083754E-1,8.856846546E0,-1.094825788E0,8.936821240E0
1.893849904E1,1.242606416E-2,9.583513949E0,-8.265201585E-1,9.619097130E0
1.894852404E1,-5.250122841E-1,1.005623795E1,-5.987909894E-1,1.008772076E1
1.895854904E1,-9.370538767E-1,1.031169344E1,-5.393575506E-1,1.036822059E1
1.896857404E1,-1.144120740E0,1.042919792E1,-8.514164333E-1,1.052625724E1
1.897859904E1,-1.291253058E0,1.057367443E1,-1.988744317E0,1.083628301E1
1.898862404E1,-2.078473788E0,1.069513279E1,-4.014865497E0,1.161141954E1
1.899864904E1,-3.540389675E0,1.060619898E1,-6.772417077E0,1.307254562E1
1.900867404E1,-4.285959957E0,1.028873727E1,-7.621637442E0,1.350247847E1
1.901869904E1,-4.003688545E0,9.852361908E0,-3.784535487E0,1.128810285E1
1.902872404E1,-3.450833135E0,9.666184223E0,9.586893055E-1,1.030836805E1
1.903874904E1,-2.838653045E0,9.532066637E0,4.704124753E0,1.100213776E1
1.904877304E1,-2.213819288E0,9.677675171E0,7.131954181E0,1.222387676E1
1.905879804E1,-1.658573245E0,9.902369635E0,7.828702551E0,1.273170740E1
1.906882304E1,-1.414126155E0,9.959641943E0,7.172001761E0,1.235442551E1
1.907884804E1,-1.287024352E0,9.906455669E0,5.851409276E0,1.157727455E1
1.908887304E1,-9.619691549E-1,9.908525584E0,4.621280525E0,1.097544977E1
1.909889804E1,-4.292695364E-1,1.010920202E1,3.708638628E0,1.077655967E1
1.910892304E1,-1.456018678E0,9.889418052E0,4.410966411E0,1.092598757E1
1.911894804E1,-8.724531072E-1,9.936427327E0,3.541042224E0,1.058455207E1
1.912897304E1,-1.198727010E0,9.829698100E0,3.539150358E0,1.051596389E1
1.913899804E1,-1.404426648E0,9.652399412E0,3.331062278E0,1.030714337E1
1.914902304E1,-1.541456000E0,9.448714578E0,3.050831252E0,1.004797816E1
1.915904804E1,-1.560288128E0,9.284089730E0,2.718975159E0,9.799063581E0
1.916907204E1,-1.605379808E0,9.067431679E0,2.466313462E0,9.533009161E0
1.917909704E1,-1.880195436E0,8.877222338E0,2.260500973E0,9.351474535E0
1.918912204E1,-2.299252371E0,8.803297160E0,2.256333809E0,9.374201012E0
1.919914704E1,-2.574494846E0,8.736351804E0,2.254611219E0,9.382704210E0
1.920917204E1,-3.041399401E0,8.232242877E0,1.896012446E0,8.978574291E0
1.921919767E1,-2.617877385E0,3.496057840E0,-1.545445702E0,4.632936956E0
1.922922267E1,-2.245949154E0,-1.890097257E1,-3.646303800E1,4.113203365E1
1.923924767E1,-6.911405978E-1,-4.706294772E1,-3.453784459E1,5.838031717E1
1.924927267E1,-9.032904455E-1,-4.710277895E1,-3.457661163E1,5.843825622E1
1.925929767E1,-1.169529669E0,-4.717858694E1,-3.456229063E1,5.849563059E1
1.926932267E1,-1.437653743E0,-4.727704937E1,-3.450321972E1,5.854620753E1
1.927934767E1,-1.614861507E0,-4.736731167E1,-3.440095659E1,5.856360480E1
1.928937167E1,2.482149476E0,-9.436228434E0,4.906381112E0,1.092135746E1
1.929939667E1,-3.915579191E-1,-7.785607987E0,3.512532370E0,8.550256896E0
1.930942167E1,4.186317262E0,-1.064003448E1,3.207476405E0,1.187533119E1
1.931944667E1,7.636306352E0,-1.643975320E1,-5.163543119E-1,1.813409170E1
1.932947167E1,7.739117945E0,-1.637699153E1,-6.558444652E-1,1.812539462E1
1.933949667E1,7.838528212E0,-1.632359592E1,-7.730751456E-1,1.812456768E1
1.934952167E1,7.933327366E0,-1.626920980E1,-9.150974357E-1,1.812352819E1
1.935954667E1,2.038797360E0,-9.330207889E0,-1.404339817E0,9.653063982E0
1.936957167E1,6.987908024E-1,-6.498654533E0,-8.789348920E-1,6.594948512E0
1.937959667E1,-2.824222702E-1,-3.940360860E0,-7.239765143E-1,4.016260455E0
1.938962167E1,-7.217330839E-1,-1.574040633E0,-7.401265240E-1,1.883159534E0
1.939964567E1,-8.000156070E-1,1.020681778E0,-1.068728276E0,1.680475050E0
1.940967067E1,-6.882256146E-1,3.535585603E0,-1.481071658E0,3.894559450E0
1.941969567E1,-1.095009537E-1,5.504065370E0,-1.788831668E0,5.788492446E0
1.942972067E1,3.949519354E-1,7.091092669E0,-1.386364306E0,7.236130752E0
1.943974567E1,6.253532821E-1,8.315898407E0,-8.862871078E-1,8.386342342E0
1.944977067E1,6.260897389E-1,9.141489589E0,-5.105146245E-1,9.177115312E0
1.945979567E1,2.806894478E-1,9.902887698E0,-2.699507439E-1,9.910542101E0
1.946982067E1,-2.007559633E-1,1.040502436E1,-2.301943552E-1,1.040950644E1
1.947984567E1,-6.775202398E-1,1.042901432E1,-8.797954559E-2,1.045136899E1
1.948987067E1,-9.477931653E-1,1.035157145E1,-2.798980272E-1,1.039863868E1
1.949989567E1,-1.047777629E0,1.043873707E1,-1.298902824E0,1.057129216E1
1.950992067E1,-1.825569139E0,1.081502761E1,-4.982992501E0,1.204689749E1
1.951994567E1,-3.183588483E0,1.125656022E1,-1.073581772E1,1.587775695E1
1.952996967E1,-3.381479895E0,1.091350057E1,-9.105088917E0,1.460963878E1
1.953999467E1,-3.070757101E0,1.016257307E1,-3.415106063E0,1.115214733E1
1.955001967E1,-2.658541554E0,9.807809633E0,6.617396280E-2,1.016195611E1
1.956004467E1,-2.289301580E0,9.728842986E0,2.630162970E0,1.033484614E1
1.957006967E1,-1.876465497E0,9.806239071E0,4.531304740E0,1.096431348E1
1.958009467E1,-1.606191256E0,9.882872679E0,5.988858604E0,1.166693834E1
1.959011967E1,-1.640600512E0,9.872338336E0,6.595748134E0,1.198576354E1
1.960014467E1,-1.700600400E0,9.847754302E0,5.813430440E0,1.156141341E1
1.961016967E1,-1.796211146E0,9.848125015E0,4.594966885E0,1.101479285E1
1.962019467E1,-1.702825850E0,9.869452150E0,3.789339267E0,1.070816481E1
1.963021967E1,-1.650814428E0,9.912716868E0,3.617496615E0,1.068051617E1
1.964024467E1,-1.984872729E0,9.888057990E0,4.080099082E0,1.087936667E1
1.965026867E1,-1.796647203E0,9.927662351E0,4.114143325E0,1.089553102E1
1.966029367E1,-1.847912227E0,9.967583631E0,4.117375374E0,1.094167643E1
1.967031867E1,-1.797691954E0,9.935773609E0,3.887067875E0,1.081945425E1
1.968034367E1,-1.913625576E0,9.846594214E0,3.660678595E0,1.067791872E1
1.969036867E1,-2.137263156E0,9.641507803E0,3.254781257E0,1.039808480E1
1.970039367E1,-2.340926355E0,9.273745421E0,2.749550542E0,9.952000729E0
1.971041867E1,-2.555641668E0,8.948012824E0,2.369768915E0,9.602814303E0
1.972044367E1,-2.654562816E0,8.793783156E0,2.069563508E0,9.415966177E0
1.973046867E1,-2.823402045E0,8.622007163E0,2.039526069E0,9.298939359E0
1.974049367E1,-3.190695481E0,8.235995035E0,6.179992390E-1,8.854042858E0
1.975051867E1,-3.704424832E0,1.664756091E0,-2.850472256E1,2.879259253E1
1.976054367E1,-1.182783845E0,-1.327526114E1,-4.232050032E1,4.436954229E1
1.977056767E1,-1.267574904E0,-1.326910987E1,-4.241673145E1,4.446183903E1
1.978059267E1,-1.443609425E0,-1.328312915E1,-4.254493984E1,4.459369277E1
1.979061767E1,-1.672740171E0,-1.335250052E1,-4.256210727E1,4.463877580E1
1.980064267E1,-1.875806662E0,-1.344791071E1,-4.248350666E1,4.460059743E1
1.981066767E1,-1.999458901E0,-1.352338891E1,-4.239117678E1,4.454089977E1
1.982069267E1,2.502000481E0,-9.120688704E0,-1.847689741E0,9.636437423E0
1.983071767E1,1.717464647E0,-3.149882793E0,-4.402045898E0,5.678860318E0
1.984074267E1,2.632127342E0,-6.407987607E0,-7.950339255E-1,6.972982035E0
1.985076767E1,4.912676225E0,-1.481072126E1,2.241929193E-1,1.560583591E1
1.986079267E1,5.001983088E0,-1.986950303E1,-3.712479079E-1,2.049279899E1
1.987081767E1,5.089679629E0,-1.981114782E1,-4.867640385E-1,2.046028729E1
1.988084267E1,5.184950652E0,-1.974571981E1,-6.347712462E-1,2.042498712E1
1.989086667E1,5.289579560E0,-1.967587132E1,-8.091106586E-1,2.039054251E1
1.990089167E1,1.882801394E0,-8.717412087E0,-2.500601535E0,9.262355134E0
1.991091667E1,1.332310013E0,-6.579935508E0,-2.947053992E0,7.331829819E0
1.992094167E1,9.357971638E-1,-4.251221064E0,-2.752251663E0,5.150095735E0
1.993096667E1,3.116441689E-1,-1.691650359E0,-2.526056803E0,3.056103074E0
1.994099167E1,-1.781398103E-1,8.216063046E-1,-2.395793703E0,2.539015198E0
1.995101667E1,-2.226154867E-1,3.187267551E0,-1.923520965E0,3.729365227E0
1.996104167E1,-1.897323538E-1,5.426575729E0,-1.218441482E0,5.564918881E0
1.997106667E1,3.109617989E-1,7.367621530E0,-5.219949015E-1,7.392633017E0
1.998109167E1,4.913688670E-1,8.621303158E0,-2.043612834E-1,8.637712373E0
1.999111667E1,1.730525865E-1,9.380402727E0,-4.780880861E-1,9.394172169E0
2.000114167E1,-1.619909701E-1,1.006833233E1,-7.144349547E-1,1.009494795E1
2.001116567E1,-3.518032846E-1,1.064832349E1,-7.950763178E-1,1.068375894E1
2.002119067E1,-4.392311454E-1,1.098193638E1,-6.703013404E-1,1.101113775E1
2.003121567E1,-5.234621872E-1,1.098257490E1,-4.697791927E-1,1.100507413E1
2.004124067E1,-5.879575606E-1,1.085791226E1,-8.232797778E-1,1.090494119E1
2.005126567E1,-5.876975057E-1,1.093422895E1,-2.186272763E0,1.116613361E1
2.006129067E1,-5.797350597E-1,1.102059583E1,-4.157567965E0,1.179300626E1
2.007131567E1,-1.460321790E0,1.080479615E1,-4.194390221E0,1.168199765E1
2.008134067E1,-1.919257029E0,1.057544029E1,-3.270069095E0,1.123462669E1
2.009136567E1,-2.107487233E0,1.033613714E1,-2.036530102E0,1.074358824E1
2.010139067E1,-1.911717191E0,1.017063521E1,-4.608281288E-1,1.035899830E1
2.011141567E1,-1.916633676E0,1.003605803E1,1.177961208E0,1.028511245E1
2.012144067E1,-1.706567629E0,9.981005330E0,2.525172704E0,1.043596367E1
2.013146567E1,-1.795751994E0,9.939193060E0,3.692769284E0,1.075401455E1
2.014148967E1,-1.845598192E0,9.929973171E0,4.207505233E0,1.094137561E1
2.015151467E1,-1.956687688E0,9.919500808E0,4.205953382E0,1.095057838E1
2.016153967E1,-2.222183730E0,9.853248346E0,4.320908472E0,1.098612095E1
2.017156467E1,-2.592401944E0,9.784685649E0,4.622937041E0,1.112799029E1
2.018158967E1,-2.869811396E0,9.828391832E0,4.813043178E0,1.131364168E1
2.019161467E1,-2.967875634E0,9.794579723E0,4.975692837E0,1.137978897E1
2.020163967E1,-2.915419093E0,9.461439289E0,4.985181699E0,1.108469839E1
2.021166492E1,-3.010680761E0,9.053607107E0,4.519986285E0,1.055756962E1
2.022168992E1,-3.150590014E0,8.736488628E0,3.709942264E0,1.000080610E1
2.023171492E1,-3.730428277E0,8.572330388E0,2.966147197E0,9.808107493E0
2.024173992E1,-4.251687379E0,8.433185951E0,2.184720912E0,9.693733869E0
2.025176492E1,-4.963400820E0,7.641275901E0,-2.073377062E0,9.344695690E0
2.026178892E1,-6.275016076E0,5.318930828E0,-1.038926611E1,1.325155471E1
2.027181392E1,-5.429428001E0,3.279165900E0,-4.949562800E0,8.045482542E0
2.028183892E1,-4.301934842E0,4.737051594E-1,7.047532082E-1,4.384942080E0
2.029186392E1,-2.828647290E0,-6.775740634E0,2.385642644E0,7.720310710E0
2.030188892E1,1.255340336E0,-3.338308733E1,-3.648090242E1,4.946577241E1
2.031191392E1,8.414467844E-1,-3.352687737E1,-3.635624913E1,4.946247457E1
2.032193892E1,4.713902467E-1,-3.365301351E1,-3.630759796E1,4.950746607E1
2.033196392E1,2.785113600E-1,-3.374557727E1,-3.622717068E1,4.951009442E1
2.034198892E1,2.242316571E-1,-3.379645039E1,-3.614060148E1,4.948124305E1
2.035201392E1,1.666823666E0,-8.098780764E0,1.177831078E1,1.439087057E1
2.036203892E1,5.459343526E-1,-4.485005609E0,1.133985498E1,1.220678625E1
2.037206392E1,-1.443946517E-1,-6.380874068E0,9.228624212E0,1.122069109E1
2.038208792E1,1.659035467E0,-1.385410742E1,3.775167663E0,1.445477714E1
2.039211292E1,3.450780803E0,-2.225553422E1,-6.899395212E0,2.355458227E1
2.040213792E1,3.523087179E0,-2.219115170E1,-7.095929486E0,2.356292792E1
2.041216292E1,3.585966674E0,-2.215852190E1,-7.169445359E0,2.356395969E1
2.042218792E1,5.370407376E0,-9.379361338E0,-4.518421862E0,1.171451367E1
2.043221292E1,4.233660121E0,-7.115305989E0,2.145365350E-1,8.282359764E0
2.044223792E1,2.370136559E0,-4.210629108E0,5.135096414E-1,4.859077787E0
2.045226292E1,4.675525729E-1,-1.467414317E0,3.815344758E-1,1.586656466E0
2.046228792E1,-6.097931103E-1,6.719602686E-1,-8.622174101E-1,1.251717661E0
2.047231292E1,-1.245761428E0,2.598838266E0,-2.250168797E0,3.656383662E0
2.048233792E1,-1.243045396E0,4.269721654E0,-2.717668891E0,5.211660874E0
2.049236292E1,-4.458092630E-1,6.040394794E0,-2.126114123E0,6.419149198E0
2.050238692E1,1.181542481E-1,7.557385898E0,-1.222907585E0,7.656601400E0
2.051241192E1,2.723530725E-1,8.754702705E0,-5.565181053E-1,8.776600028E0
2.052243692E1,1.185802178E-1,1.002615519E1,-2.897165986E-1,1.003104107E1
2.053246192E1,-1.828516428E-1,1.079791281E1,-3.122646316E-1,1.080397450E1
2.054248692E1,-3.194249126E-1,1.122733935E1,-5.630354118E-1,1.124598550E1
2.055251192E1,-3.852002415E-1,1.128770366E1,-1.136315145E0,1.135129267E1
2.056253692E1,-7.192858779E-1,1.116806261E1,-1.858792580E0,1.134451870E1
2.057256192E1,-9.043438214E-1,1.100881954E1,-2.152424401E0,1.125366057E1
2.058258692E1,-1.009615923E0,1.082053452E1,-1.791817256E0,1.101425897E1
2.059261192E1,-1.338277682E0,1.057938833E1,-8.313442576E-1,1.069605431E1
2.060263692E1,-1.983776084E0,1.026913975E1,4.033899061E-1,1.046677229E1
2.061266192E1,-2.313193303E0,1.012349496E1,1.363168256E0,1.047350186E1
2.062268692E1,-1.624479007E0,1.025513099E1,1.907551049E0,1.055677008E1
2.063271092E1,-2.137777126E0,1.015628147E1,2.399312849E0,1.065255117E1
2.064273592E1,-1.838375711E0,1.027482558E1,2.808651567E0,1.080926406E1
2.065276092E1,-1.765331708E0,1.035561305E1,3.220909798E0,1.098769209E1
2.066278592E1,-1.826119070E0,1.036064048E1,3.521506677E0,1.109407911E1
2.067281092E1,-2.048255377E0,1.028814320E1,3.644171906E0,1.110500920E1
