"Time (s)","Linear Acceleration x (m/s^2)","Linear Acceleration y (m/s^2)","Linear Acceleration z (m/s^2)","Absolute acceleration (m/s^2)"
6.008299458E0,1.782648237E0,-2.051748796E0,1.225183541E0,2.981372598E0
6.018326458E0,2.602691581E0,-1.295512901E0,2.068596379E0,3.568115486E0
6.028353458E0,3.333791758E0,-9.745837918E-1,2.643992804E0,4.365166549E0
6.038380458E0,3.931879474E0,-1.064847552E0,2.806423193E0,4.946674402E0
6.048407458E0,4.204623433E0,-1.179542734E0,2.522284180E0,5.043024564E0
6.058435458E0,4.002948287E0,-1.002832275E0,1.692998142E0,4.460438350E0
6.068462458E0,4.253955806E0,-1.190295763E0,9.506777430E-1,4.518487820E0
6.078489458E0,4.233019266E0,-6.878249341E-1,3.501651871E-1,4.302809653E0
6.088516458E0,4.054133644E0,3.300449181E-1,-1.096154130E-1,4.069022584E0
6.098543458E0,3.496801021E0,1.738947902E0,-1.850514933E-1,3.909706030E0
6.108571458E0,3.266331262E0,2.787230877E0,-4.067359753E-3,4.293901771E0
6.118598458E0,3.168873380E0,3.614702523E0,1.540624380E-1,4.809528882E0
6.128625458E0,2.862383385E0,4.355470487E0,2.947149082E-1,5.220174201E0
6.138652458E0,2.551776366E0,4.758883928E0,3.878715420E-1,5.413777165E0
6.148680458E0,2.010810100E0,4.904093097E0,4.242974297E-1,5.317284520E0
6.158707458E0,1.374811378E0,4.793261463E0,4.486650797E-1,5.006671762E0
6.168734458E0,6.572217768E-1,4.467914783E0,4.442000727E-1,4.537787641E0
6.178761458E0,-5.952699423E-2,4.039795101E0,3.582764447E-1,4.056088009E0
6.188788458E0,-7.308171719E-1,3.585341315E0,2.348674500E-1,3.666596351E0
6.198816458E0,-1.199950978E0,3.231454375E0,1.960664964E-1,3.452625349E0
6.208844167E0,-1.490513157E0,2.905031222E0,1.557768416E-1,3.268807473E0
6.218871167E0,-1.635055743E0,2.613377368E0,1.857660230E-1,3.088309824E0
6.228898167E0,-1.664927999E0,2.327521613E0,2.898359549E-1,2.876342639E0
6.238925167E0,-1.602577969E0,2.100539133E0,4.887582314E-1,2.686895123E0
6.248953167E0,-1.538601828E0,1.863742687E0,6.754972494E-1,2.509408082E0
6.258980167E0,-1.378528453E0,1.638744752E0,8.824699724E-1,2.316155933E0
6.269007167E0,-1.290050724E0,1.497797619E0,1.137987449E0,2.280930514E0
6.279034167E0,-1.310262794E0,1.325183719E0,1.263718958E0,2.251640754E0
6.289061167E0,-1.185483797E0,1.209221739E0,1.398601359E0,2.196286595E0
6.299089167E0,-9.543544722E-1,1.192636111E0,1.401468834E0,2.072990170E0
6.309116167E0,-6.439597070E-1,1.233405823E0,1.284126910E0,1.893397990E0
6.319143167E0,-3.445933753E-1,1.347849866E0,1.015634462E0,1.722485766E0
6.329170167E0,2.963485837E-2,1.439524852E0,7.556415260E-1,1.626070152E0
6.339198167E0,3.450377637E-1,1.479499342E0,6.404852915E-1,1.648693655E0
6.349225167E0,5.520800686E-1,1.407283305E0,5.928199589E-1,1.623783916E0
6.359252167E0,8.028285563E-1,1.188911435E0,5.328889221E-1,1.530364236E0
6.369279167E0,1.163771331E0,1.035510902E0,4.389610040E-1,1.618435449E0
6.379306167E0,1.715728608E0,9.816580456E-1,2.586206124E-1,1.993555065E0
6.389334167E0,2.272335007E0,1.025341424E0,8.464021901E-2,2.494392789E0
6.399361167E0,2.741974012E0,1.216169985E0,-1.504260546E-1,3.003351280E0
6.409388167E0,3.334881679E0,1.205860759E0,-4.448076349E-1,3.573987943E0
6.419415167E0,3.660854012E0,1.191965436E0,-7.918398839E-1,3.930603528E0
6.429442167E0,3.821648349E0,1.299328501E0,-1.031379844E0,4.166172709E0
6.439470167E0,3.983891042E0,1.424478212E0,-1.176070365E0,4.391317287E0
6.449497167E0,4.150609193E0,1.495140644E0,-1.203369260E0,4.572865600E0
6.459524167E0,4.361191987E0,1.363719209E0,-1.042568491E0,4.686861924E0
6.469551167E0,4.478594722E0,1.186461452E0,-7.536482102E-1,4.693984138E0
6.479578167E0,4.501407634E0,1.097555122E0,-5.558837189E-1,4.666508828E0
6.489606167E0,4.482286654E0,1.086032014E0,-5.451324435E-1,4.644085332E0
6.499633167E0,4.554568180E0,1.069773831E0,-7.019752691E-1,4.730885396E0
6.509660167E0,4.693594503E0,1.036746418E0,-7.401043046E-1,4.863376078E0
6.519687167E0,4.638036599E0,9.869848591E-1,-8.179676554E-1,4.811922037E0
6.529714167E0,4.318071111E0,9.756289816E-1,-9.035257959E-1,4.518179821E0
6.539742167E0,3.879332301E0,8.419107610E-1,-1.056243374E0,4.107758865E0
6.549769167E0,3.520080541E0,4.157791328E-1,-1.215457282E0,3.747155682E0
6.559796167E0,3.424573874E0,-9.425126910E-2,-1.109480446E0,3.601046568E0
6.569823167E0,3.498641140E0,-6.026397729E-1,-7.964995301E-1,3.638416692E0
6.579851167E0,3.571377579E0,-1.062385290E0,-4.813691781E-1,3.757008997E0
6.589878167E0,3.546922184E0,-1.501984225E0,-2.552765715E-1,3.860282337E0
6.599905167E0,3.412349101E0,-1.837539559E0,1.855321527E-2,3.875696355E0
6.609932167E0,3.117098624E0,-2.099064173E0,2.946727534E-1,3.769510083E0
6.619959167E0,2.625245461E0,-2.189376757E0,5.888929689E-1,3.468728765E0
6.629987167E0,2.078573483E0,-2.144794077E0,8.271710998E-1,3.099164627E0
6.640014167E0,1.528906560E0,-2.079790288E0,9.340353978E-1,2.745087437E0
6.650041167E0,9.755658317E-1,-1.958115285E0,1.039714465E0,2.422178840E0
6.660068167E0,4.597361612E-1,-1.768308233E0,1.113650168E0,2.139740181E0
6.670095167E0,-2.022025645E-2,-1.533137020E0,1.143424775E0,1.912678279E0
6.680123167E0,-4.907439458E-1,-1.381108536E0,9.852318639E-1,1.766061221E0
6.690150167E0,-9.961608946E-1,-1.286160572E0,6.557184577E-1,1.753998928E0
6.700177167E0,-1.481337122E0,-1.290753852E0,3.347332887E-1,1.993100988E0
6.710204167E0,-1.951925715E0,-1.404302394E0,7.413867451E-2,2.405738090E0
6.720231167E0,-2.460084423E0,-1.523779429E0,-1.240182015E-1,2.896428772E0
6.730259167E0,-2.844482719E0,-1.633062135E0,-2.910907674E-1,3.292826706E0
6.740286167E0,-3.162782335E0,-1.823472620E0,-4.749155331E-1,3.681547129E0
6.750313167E0,-3.500012312E0,-2.031710388E0,-6.800902373E-1,4.103712467E0
6.760340167E0,-3.772956830E0,-2.238389581E0,-8.496349329E-1,4.468497586E0
6.770367167E0,-4.019369608E0,-2.441757057E0,-1.048153751E0,4.818312553E0
6.780395167E0,-4.245092597E0,-2.613139386E0,-1.231570966E0,5.134790712E0
6.790422167E0,-4.436848526E0,-2.791138571E0,-1.393264605E0,5.423768581E0
6.800449167E0,-4.664787025E0,-2.921799282E0,-1.547617650E0,5.717715403E0
6.810476167E0,-4.836096411E0,-2.983761934E0,-1.614707433E0,5.907448169E0
6.820504167E0,-4.920803854E0,-3.013638575E0,-1.658745153E0,6.003978974E0
6.830531167E0,-4.959063356E0,-2.998545742E0,-1.610409729E0,6.014732366E0
6.840558167E0,-4.951216977E0,-2.906026418E0,-1.556500155E0,5.948296549E0
6.850585167E0,-4.903455750E0,-2.855581904E0,-1.558333696E0,5.884439669E0
6.860612167E0,-4.843690190E0,-2.894485184E0,-1.483565934E0,5.834410597E0
6.870639167E0,-4.760890108E0,-2.996441329E0,-1.388953453E0,5.794301248E0
6.880667167E0,-4.681419430E0,-3.192224528E0,-1.403508927E0,5.837450011E0
6.890694167E0,-4.572942470E0,-3.346215338E0,-1.503242546E0,5.862482245E0
6.900721167E0,-4.348149773E0,-3.574087471E0,-1.678599958E0,5.873517304E0
6.910748167E0,-4.073924714E0,-3.880328374E0,-1.820607777E0,5.913410483E0
6.920776167E0,-3.775810272E0,-4.165224309E0,-1.851196901E0,5.918848428E0
6.930803167E0,-3.335821327E0,-4.337388265E0,-1.743226894E0,5.742776410E0
6.940830167E0,-2.683462095E0,-4.224892806E0,-1.647792149E0,5.269336486E0
6.950857167E0,-2.155662004E0,-3.921175269E0,-1.481859278E0,4.713639898E0
6.960884167E0,-2.409001393E0,-4.253075801E0,-1.268382112E0,5.049825211E0
6.970912167E0,-2.102219038E0,-4.504029818E0,-9.544328979E-1,5.061279645E0
6.980939167E0,-1.642960010E0,-4.101812425E0,-6.795096818E-1,4.470561057E0
6.990966167E0,-1.270367827E0,-3.728164527E0,-4.282384530E-1,3.961872452E0
7.000993167E0,-9.147612208E-1,-3.452325637E0,-2.684445743E-1,3.581536386E0
7.011020167E0,-7.230666876E-1,-3.113824768E0,-4.544047065E-1,3.228809960E0
7.021048167E0,-1.009732282E-1,-3.174496355E0,-7.020769376E-1,3.252773390E0
7.031075167E0,7.276590908E-1,-3.323372605E0,-1.166908363E0,3.596660722E0
7.041102167E0,1.750513694E0,-3.724421432E0,-1.519223571E0,4.386758878E0
7.051129167E0,2.509819086E0,-3.908808700E0,-1.753831989E0,4.965269775E0
7.061156167E0,2.933215386E0,-3.791201020E0,-1.760611251E0,5.106535974E0
7.071184167E0,3.511916658E0,-3.604594149E0,-1.642177067E0,5.293713547E0
7.081211167E0,3.868982145E0,-3.125406348E0,-1.296622995E0,5.139885102E0
7.091238167E0,3.997566510E0,-2.308968690E0,-5.080306542E-1,4.644348130E0
7.101265167E0,3.789507959E0,-1.196214023E0,4.287938654E-1,3.996894136E0
7.111292167E0,3.425039313E0,-7.335799813E-2,1.262473501E0,3.651043006E0
7.121320167E0,3.513349811E0,4.635520542E-1,2.001001396E0,4.069706868E0
7.131347167E0,3.826137841E0,6.884488320E-1,2.662795111E0,4.712087688E0
7.141374167E0,4.125243972E0,5.245320815E-1,3.189870147E0,5.240996402E0
7.151401167E0,4.327026122E0,1.706533277E-1,3.520910261E0,5.581136683E0
7.161428167E0,4.374465752E0,2.026761889E-2,3.571233737E0,5.647129518E0
7.171456167E0,4.300579750E0,-1.131003535E-1,3.411418809E0,5.490496896E0
7.181483167E0,4.258634748E0,-1.415564132E-1,3.108965732E0,5.274625680E0
7.191510167E0,3.694394810E0,6.659037226E-1,2.560742487E0,4.544159203E0
7.201537167E0,2.995295275E0,1.685928274E0,2.149971933E0,4.054198717E0
7.211564667E0,2.564970608E0,2.448405780E0,1.866190331E0,4.007047721E0
7.221591667E0,2.126711270E0,3.100367401E0,1.755500200E0,4.149332452E0
7.231618667E0,1.672011901E0,3.608396886E0,1.771905148E0,4.353825873E0
7.241645667E0,1.146481699E0,4.054116102E0,1.823043873E0,4.590617237E0
7.251672667E0,6.646559268E-1,4.388722433E0,1.806210616E0,4.792186232E0
7.261700667E0,2.589281577E-1,4.611387913E0,1.678334495E0,4.914137661E0
7.271727667E0,-6.425446808E-2,4.736867407E0,1.466714551E0,4.959162534E0
7.281754667E0,-3.099965698E-1,4.748964711E0,1.275027619E0,4.926911724E0
7.291781667E0,-4.529083675E-1,4.594708146E0,1.156000382E0,4.759496383E0
7.301808667E0,-5.517046773E-1,4.415303875E0,1.163129380E0,4.599147347E0
7.311836667E0,-4.986213148E-1,4.114624259E0,1.206516890E0,4.316762562E0
7.321863667E0,-4.500040555E-1,3.710529032E0,1.403953900E0,3.992695318E0
7.331890667E0,-3.049217713E-1,3.362263606E0,1.617342188E0,3.743472932E0
7.341917667E0,-5.469719410E-2,3.047768773E0,1.856358676E0,3.569027012E0
7.351944667E0,1.324002582E-1,2.738637006E0,2.027242531E0,3.409893658E0
7.361972667E0,3.270634228E-1,2.364366673E0,2.224215345E0,3.262565578E0
7.371999667E0,3.901928866E-1,2.024566260E0,2.421279377E0,3.180206416E0
7.382026667E0,3.179920524E-1,1.669526249E0,2.635936511E0,3.136335143E0
7.392053667E0,2.353434134E-1,1.413606484E0,2.920306488E0,3.252977067E0
7.402080667E0,2.552005577E-1,1.217063439E0,3.193564417E0,3.427130641E0
7.412108667E0,4.119825357E-1,1.158715829E0,3.468936700E0,3.680471954E0
7.422135667E0,5.904401422E-1,1.184400893E0,3.604120817E0,3.839415568E0
7.432162667E0,7.461093950E-1,1.230097468E0,3.566812073E0,3.846032680E0
7.442189667E0,9.884571880E-1,1.257312748E0,3.320506300E0,3.685599686E0
7.452216667E0,1.157507209E0,1.392106272E0,2.915410030E0,3.431821448E0
7.462244667E0,1.251088972E0,1.601676913E0,2.404142357E0,3.148093554E0
7.472271667E0,1.320153944E0,1.772576993E0,1.911225732E0,2.921920504E0
7.482298667E0,1.341691579E0,1.888196912E0,1.596936575E0,2.813472995E0
7.492325667E0,1.360420795E0,1.931860995E0,1.301290827E0,2.697441280E0
7.502352667E0,1.470862420E0,1.804394032E0,9.739753890E-1,2.523470257E0
7.512380667E0,1.774124166E0,1.586635535E0,6.697120873E-1,2.472537797E0
7.522407667E0,2.090747386E0,1.226211408E0,3.764859167E-1,2.452867851E0
7.532434667E0,2.386943942E0,6.646863323E-1,9.594937362E-2,2.479620048E0
7.542461667E0,2.616018555E0,8.115058243E-2,-1.204982507E-1,2.620049298E0
7.552488667E0,2.627823499E0,-2.402433801E-1,-2.637070505E-1,2.651926589E0
7.562516667E0,2.486627859E0,-3.427526718E-1,-3.738650485E-1,2.537828319E0
7.572543667E0,2.211226341E0,-1.770121747E-1,-2.840951586E-1,2.236417961E0
7.582570667E0,1.969802992E0,2.525073302E-1,6.159106135E-2,1.986876252E0
7.592597667E0,2.034612361E0,5.713904983E-1,4.168947816E-1,2.154051026E0
7.602625667E0,2.307203123E0,5.712922651E-1,6.692875063E-1,2.469313036E0
7.612652667E0,2.679910496E0,2.503228104E-1,7.380531013E-1,2.790932489E0
7.622679667E0,2.945719657E0,-1.241644549E-1,4.734747791E-1,2.986111096E0
7.632706667E0,2.748653871E0,-3.002510154E-1,3.521543642E-2,2.765228545E0
7.642733667E0,2.402640792E0,-4.188033128E-1,-4.868841988E-1,2.486993207E0
7.652761667E0,2.216588237E0,-5.923182678E-1,-8.808444464E-1,2.457639372E0
7.662788667E0,1.980559530E0,-8.268892640E-1,-1.224115766E0,2.470793661E0
7.672815667E0,1.662431238E0,-1.084231657E0,-1.557895301E0,2.523147573E0
7.682842667E0,1.377167221E0,-1.311643322E0,-1.781833135E0,2.606132591E0
7.692869667E0,1.335518673E0,-1.600969400E0,-2.076895332E0,2.942823026E0
7.702897667E0,1.494533703E0,-1.869834316E0,-2.169283678E0,3.230433877E0
7.712924667E0,1.634569840E0,-2.050798624E0,-2.057298973E0,3.333177556E0
7.722951667E0,1.759071094E0,-2.350411123E0,-1.879271137E0,3.485745769E0
7.732978667E0,1.873690554E0,-2.761779116E0,-1.603745073E0,3.702720411E0
7.743005667E0,1.877487152E0,-3.183903063E0,-1.270839112E0,3.908609570E0
7.753033667E0,1.813764195E0,-3.472763410E0,-9.573961937E-1,4.033166712E0
7.763060667E0,1.595651942E0,-3.534646247E0,-6.003733921E-1,3.924318721E0
7.773087667E0,1.170296239E0,-3.473293168E0,-2.224514723E-1,3.671899151E0
7.783114667E0,5.647708654E-1,-3.110957001E0,1.366956228E-1,3.164759910E0
7.793141667E0,1.230219090E-1,-2.623686886E0,3.192819482E-1,2.645904048E0
7.803169667E0,-3.321902615E-1,-2.278748817E0,5.034341580E-1,2.357221350E0
7.813196667E0,-9.332360834E-1,-1.833004751E0,7.354370570E-1,2.184422960E0
7.823223667E0,-1.554417962E0,-1.530601668E0,8.918974382E-1,2.356785460E0
7.833250667E0,-2.223158754E0,-1.145824765E0,8.874132085E-1,2.653837116E0
7.843277667E0,-2.591778338E0,-1.034889050E0,8.189329576E-1,2.908429385E0
7.853305667E0,-3.030625321E0,-9.284045291E-1,7.231006014E-1,3.251076635E0
7.863332667E0,-3.425958495E0,-8.085819241E-1,6.095324707E-1,3.572467798E0
7.873359667E0,-3.740298961E0,-7.782562172E-1,4.830589138E-1,3.850826531E0
7.883386667E0,-4.087942829E0,-8.985673571E-1,2.450965691E-1,4.192704640E0
7.893413667E0,-4.361761506E0,-1.043660751E0,-4.443357646E-2,4.485104853E0
7.903441667E0,-4.465004624E0,-1.196759568E0,-3.468480982E-1,4.635601725E0
7.913468667E0,-4.489800326E0,-1.336340792E0,-6.364805335E-1,4.727496288E0
7.923495667E0,-4.540179936E0,-1.518958984E0,-8.694797981E-1,4.865846830E0
7.933522667E0,-4.564725378E0,-1.660360739E0,-1.100541222E0,4.980432365E0
7.943549667E0,-4.414825573E0,-1.856984767E0,-1.321098270E0,4.968337539E0
7.953577667E0,-4.215252501E0,-2.048717015E0,-1.528006673E0,4.929543534E0
7.963604667E0,-3.892771541E0,-2.205069222E0,-1.663871992E0,4.773308135E0
7.973631667E0,-3.563156394E0,-2.248512865E0,-1.740846493E0,4.558776163E0
7.983658667E0,-3.243201431E0,-2.177887856E0,-1.765052796E0,4.286835944E0
7.993685667E0,-2.861579978E0,-2.077977359E0,-1.809321481E0,3.972439313E0
8.003713667E0,-2.494100600E0,-1.963465488E0,-1.684382270E0,3.593449340E0
8.013740667E0,-2.076807039E0,-1.887072200E0,-1.482289633E0,3.173539274E0
8.023767667E0,-1.692082468E0,-1.952397878E0,-1.166801943E0,2.834859314E0
8.033794667E0,-1.451874171E0,-2.056464283E0,-7.959218252E-1,2.640165811E0
8.043821667E0,-1.342903706E0,-2.196006623E0,-5.031500564E-1,2.622783909E0
8.053849667E0,-1.171554560E0,-2.379222986E0,-2.562425315E-1,2.664376538E0
8.063876667E0,-1.024939136E0,-2.523978995E0,-5.182204507E-2,2.724638641E0
8.073903667E0,-7.231321764E-1,-2.659703688E0,8.404144585E-2,2.757536367E0
8.083930667E0,-3.907501262E-1,-2.689852809E0,2.137315196E-1,2.726476656E0
8.093957667E0,-3.109104896E-1,-2.630939772E0,3.245531035E-1,2.669053041E0
8.103985667E0,-1.964915890E-1,-2.690272054E0,3.076511785E-1,2.714925767E0
8.114012667E0,5.006561458E-2,-2.650470350E0,2.390353453E-1,2.661698243E0
8.124039667E0,2.644338959E-1,-2.285569595E0,1.097247193E-1,2.303430739E0
8.134066667E0,4.805604351E-1,-1.616923528E0,-1.733418044E-1,1.695708527E0
8.144093667E0,9.141104257E-1,-8.911761841E-1,-5.909266305E-1,1.406764779E0
8.154121667E0,1.742605335E0,-3.153061339E-1,-1.227325303E0,2.154627279E0
8.164148667E0,2.511901279E0,-5.298746824E-2,-2.011211804E0,3.218295920E0
8.174175667E0,3.190031530E0,-2.393241978E-1,-2.778233766E0,4.236998949E0
8.184202667E0,3.656893693E0,-5.066857946E-1,-3.252945231E0,4.920493334E0
8.194229667E0,3.880247975E0,4.409268379E-2,-3.579521581E0,5.279322235E0
8.204257667E0,4.421509525E0,5.882831043E-1,-3.499205981E0,5.669238572E0
8.214284417E0,4.327704983E0,3.984862849E-1,-2.768902779E0,5.153119865E0
8.224311417E0,3.381885107E0,4.017700812E-1,-1.587855849E0,3.757639189E0
8.234338417E0,2.762153338E0,9.498269731E-1,-4.212345850E-1,2.951118588E0
8.244365417E0,2.665331048E0,1.205360237E0,7.311416924E-1,3.015203322E0
8.254393417E0,2.654384476E0,8.425212103E-1,1.622573107E0,3.223095162E0
8.264420417E0,2.429404668E0,3.860641676E-1,2.410376658E0,3.443975641E0
8.274447417E0,1.979355004E0,-3.965815544E-2,2.972599307E0,3.571521474E0
8.284474417E0,1.483871890E0,-3.734359360E-1,3.144790453E0,3.497289976E0
8.294501417E0,9.840659291E-1,-4.895984763E-1,3.084968759E0,3.274923612E0
8.304528417E0,5.385917115E-1,-2.051203251E-1,2.802115549E0,2.860770338E0
8.314556417E0,1.676501977E-1,3.244415313E-1,2.385769236E0,2.413558316E0
8.324583417E0,-5.013519645E-2,9.656887150E-1,2.052208972E0,2.268618500E0
8.334610417E0,-1.109170032E-1,1.629847628E0,1.786297485E0,2.420653750E0
8.344637417E0,-1.654785419E-1,2.277284090E0,1.780376594E0,2.895366435E0
8.354664417E0,-1.778600210E-1,2.858742324E0,1.885755115E0,3.429302293E0
8.364692417E0,-1.348332846E-1,3.303224269E0,1.998158480E0,3.862914431E0
8.374719417E0,-1.501296008E-1,3.638320597E0,2.031104032E0,4.169568233E0
8.384746417E0,-2.676808548E-1,3.814155727E0,2.052751594E0,4.339726495E0
8.394773417E0,-5.626676220E-1,3.843686505E0,1.845567201E0,4.300771919E0
8.404800417E0,-8.856274688E-1,3.600137109E0,1.634513122E0,4.051784343E0
8.414828417E0,-1.346979216E0,3.184722843E0,1.738770146E0,3.870417834E0
8.424855417E0,-1.683429759E0,2.709036646E0,1.710429862E0,3.619169189E0
8.434882417E0,-1.869457755E0,2.162896764E0,1.661072491E0,3.306381184E0
8.444909417E0,-2.047209018E0,1.670568223E0,1.728595991E0,3.157515962E0
8.454936417E0,-2.080086742E0,1.154652014E0,1.813883479E0,2.991681033E0
8.464964417E0,-2.005945802E0,6.762503707E-1,1.909279633E0,2.850698483E0
8.474991417E0,-1.900047464E0,4.045051163E-1,2.021825670E0,2.803851600E0
8.485018417E0,-1.761453835E0,1.965149778E-1,2.160383631E0,2.794386369E0
8.495045417E0,-1.601605577E0,3.367645383E-2,2.277668252E0,2.784608984E0
8.505072417E0,-1.357556244E0,-6.687402070E-2,2.416737260E0,2.772733322E0
8.515100417E0,-1.124181004E0,-9.828000069E-2,2.563297720E0,2.800702963E0
8.525127417E0,-8.206438529E-1,-1.582578152E-1,2.589190360E0,2.720736774E0
8.535154417E0,-5.910716414E-1,-1.987550461E-1,2.527830849E0,2.603612501E0
8.545181417E0,-4.221216077E-1,-2.356579936E-1,2.449791570E0,2.497038261E0
8.555208417E0,-2.489335120E-1,-2.318035090E-1,2.308142771E0,2.333071754E0
8.565236417E0,-3.171588242E-2,-1.250082082E-1,2.123272523E0,2.127185736E0
8.575263417E0,2.735081899E-1,1.258110309E-1,1.893355472E0,1.917141124E0
8.585290417E0,6.058574957E-1,5.828346688E-1,1.645779537E0,1.848066514E0
8.595317417E0,9.458298165E-1,1.041370981E0,1.331878781E0,1.937252862E0
8.605344417E0,1.445587830E0,1.422740420E0,8.767957612E-1,2.209679905E0
8.615371417E0,1.920218604E0,1.714665000E0,3.323533988E-1,2.595722314E0
8.625399417E0,2.286693429E0,1.779742756E0,-1.940200074E-1,2.904151318E0
8.635426417E0,2.643067775E0,1.500946344E0,-6.796581280E-1,3.114575792E0
8.645453417E0,2.844102650E0,1.028845076E0,-1.215150815E0,3.259452957E0
8.655480417E0,2.904346513E0,6.920536405E-1,-1.705272617E0,3.438331224E0
8.665507417E0,2.902951952E0,5.560667002E-1,-2.191497250E0,3.679538070E0
8.675535417E0,2.781953180E0,6.888072664E-1,-2.606356031E0,3.873862505E0
8.685562417E0,2.625861173E0,1.192819714E0,-2.544065643E0,3.845807557E0
8.695589417E0,2.993667410E0,1.425469900E0,-1.887081263E0,3.815112671E0
8.705616417E0,3.686338516E0,1.138324834E0,-1.121591856E0,4.017815747E0
8.715643417E0,4.165534796E0,7.796127713E-1,-5.273288047E-1,4.270544682E0
8.725671417E0,4.233645503E0,4.883559430E-1,-4.455174869E-1,4.284942427E0
8.735698417E0,3.763675545E0,3.857343847E-1,-5.418789796E-1,3.821999143E0
8.745725417E0,3.212920455E0,3.555627519E-1,-5.558427519E-1,3.279976202E0
8.755752417E0,2.783897964E0,2.501976800E-1,-7.300383228E-1,2.888882605E0
8.765779417E0,2.285646193E0,3.014999807E-2,-9.429032850E-1,2.472681570E0
8.775807417E0,1.805496817E0,-2.735263163E-1,-1.106908329E0,2.135387892E0
8.785834417E0,1.319452863E0,-4.832747126E-1,-1.193933097E0,1.843905243E0
8.795861417E0,1.053670015E0,-6.549957418E-1,-1.017384533E0,1.604466020E0
8.805888417E0,1.307942619E0,-1.016023301E0,-5.195659681E-1,1.735789745E0
8.815915417E0,1.808247932E0,-1.428616871E0,1.405752138E-1,2.308780661E0
8.825942417E0,2.070265759E0,-1.762309282E0,6.026502979E-1,2.784766004E0
8.835970417E0,2.321953309E0,-2.001869708E0,6.712843305E-1,3.138402802E0
8.845997417E0,2.333613242E0,-1.990896238E0,7.737462598E-1,3.163558419E0
8.856024417E0,2.193075998E0,-1.909360324E0,7.407211858E-1,3.000651106E0
8.866051417E0,1.972176377E0,-1.604168411E0,7.588984251E-1,2.653066674E0
8.876078417E0,1.622573107E0,-1.277747598E0,9.601777142E-1,2.277569682E0
8.886106417E0,1.163199474E0,-1.058288146E0,1.130202466E0,1.936585766E0
8.896133417E0,6.208409858E-1,-9.590044704E-1,1.294336733E0,1.726395286E0
8.906160417E0,2.880806208E-2,-9.035950854E-1,1.367557322E0,1.639367869E0
8.916187417E0,-5.929918671E-1,-8.774635863E-1,1.410206913E0,1.763594408E0
8.926214417E0,-1.175179249E0,-8.805105704E-1,1.426026555E0,2.046923757E0
8.936242417E0,-1.754889750E0,-8.991161183E-1,1.313414444E0,2.369199302E0
8.946269417E0,-2.286786985E0,-9.495433831E-1,1.114746448E0,2.715453368E0
8.956296417E0,-2.749090658E0,-9.488662755E-1,8.961576464E-1,3.043180110E0
8.966323417E0,-3.055415761E0,-9.065040752E-1,7.067265704E-1,3.264472018E0
8.976350417E0,-3.209142569E0,-7.754451683E-1,5.428093082E-1,3.345826233E0
8.986377417E0,-3.316684560E0,-6.892668575E-1,3.812763944E-1,3.408937805E0
8.996405417E0,-3.459861821E0,-5.595960796E-1,1.966921484E-1,3.510338929E0
9.006432417E0,-3.498170439E0,-5.473210198E-1,4.444980249E-3,3.540731065E0
9.016459417E0,-3.505623300E0,-6.036823314E-1,-2.128545103E-1,3.563584449E0
9.026486417E0,-3.462154514E0,-6.700315645E-1,-4.161550357E-1,3.550864851E0
9.036513417E0,-3.319949645E0,-8.441628161E-1,-6.289013726E-1,3.482842724E0
9.046541417E0,-3.169655737E0,-1.076202553E0,-7.948091000E-1,3.440443421E0
9.056568417E0,-3.023025110E0,-1.322141998E0,-9.574897492E-1,3.435626129E0
9.066595417E0,-2.848248326E0,-1.515048659E0,-1.113613915E0,3.412920585E0
9.076622417E0,-2.676982795E0,-1.668778683E0,-1.189104905E0,3.371205964E0
9.086649417E0,-2.580124837E0,-1.793281984E0,-1.289927348E0,3.396589026E0
9.096677417E0,-2.507541595E0,-1.948483752E0,-1.407670975E0,3.473599193E0
9.106704417E0,-2.321569732E0,-2.116938234E0,-1.565230633E0,3.510136812E0
9.116731417E0,-2.116708438E0,-2.345053027E0,-1.716310406E0,3.595198148E0
9.126758417E0,-2.037917207E0,-2.498179033E0,-1.855309247E0,3.719701256E0
9.136785417E0,-1.980529125E0,-2.706620285E0,-2.099835713E0,3.956968410E0
9.146812417E0,-1.969061565E0,-3.105111247E0,-2.117454543E0,4.242939199E0
9.156840417E0,-1.870142464E0,-3.476199819E0,-1.936131801E0,4.396590084E0
9.166867417E0,-1.833058253E0,-3.718335358E0,-1.718790210E0,4.487801263E0
9.176894417E0,-1.768989142E0,-3.795762141E0,-1.578722498E0,4.475432665E0
9.186921417E0,-1.615638894E0,-3.727861641E0,-1.463679115E0,4.318518034E0
9.196948417E0,-1.431763843E0,-3.441277908E0,-1.333251708E0,3.958522635E0
9.206976417E0,-1.257096401E0,-2.952180246E0,-1.231467471E0,3.436884010E0
9.217003417E0,-1.070519351E0,-2.423995993E0,-1.224127388E0,2.918947776E0
9.227030417E0,-7.925731248E-1,-2.136127919E0,-1.482476744E0,2.718262669E0
9.237057417E0,-3.514340329E-1,-2.360061952E0,-1.993847328E0,3.109473503E0
9.247084417E0,1.202889204E-2,-2.941825411E0,-2.472487537E0,3.842873413E0
9.257111417E0,4.392165273E-1,-3.474393614E0,-2.904499125E0,4.549773325E0
9.267139417E0,9.305487031E-1,-3.847186064E0,-3.299048772E0,5.152716206E0
9.277166417E0,1.404050964E0,-4.182062244E0,-3.342731566E0,5.534876516E0
9.287193417E0,1.734843156E0,-4.090374101E0,-3.065900989E0,5.398202473E0
9.297220417E0,1.915558373E0,-3.279730157E0,-2.287573435E0,4.433845509E0
9.307247417E0,2.023913711E0,-2.021820700E0,-1.227450433E0,3.112976103E0
9.317275417E0,2.403313222E0,-6.798116174E-1,-1.995923674E-1,2.505572867E0
9.327302417E0,2.821637648E0,3.736125219E-1,7.595743632E-1,2.945874835E0
9.337329417E0,3.148716273E0,9.059950751E-1,1.534954920E0,3.618194004E0
9.347356417E0,3.375995207E0,9.937553501E-1,2.127070874E0,4.112094823E0
9.357383417E0,3.462749176E0,7.521527848E-1,2.288063432E0,4.218009001E0
9.367411417E0,3.167067175E0,3.660245901E-1,1.970670719E0,3.748043700E0
9.377438417E0,2.797992677E0,5.963487536E-2,1.452262427E0,3.152996273E0
9.387465417E0,2.629958317E0,2.605987072E-2,1.157149944E0,2.873387524E0
9.397492417E0,2.574106883E0,2.874146229E-1,1.026167636E0,2.785974412E0
9.407519417E0,2.521832190E0,6.983814973E-1,1.123644229E0,2.847797511E0
9.417546417E0,2.331380190E0,1.228307635E0,1.314236562E0,2.944705585E0
9.427574417E0,1.930027308E0,1.701405269E0,1.735147212E0,3.103308097E0
9.437601417E0,1.430637669E0,2.054221584E0,2.098766842E0,3.266706707E0
9.447628417E0,5.676722538E-1,2.320459346E0,2.141228153E0,3.208058815E0
9.457655417E0,-4.551788414E-1,2.345660260E0,2.074974521E0,3.164621478E0
9.467682417E0,-1.332390997E0,2.219168906E0,1.881175575E0,3.199812174E0
9.477710417E0,-2.047711878E0,2.143571717E0,1.754747078E0,3.444874591E0
9.487737417E0,-2.653227897E0,2.178574027E0,1.492136929E0,3.743297434E0
9.497764417E0,-2.931664705E0,2.174344735E0,1.472527707E0,3.935831655E0
9.507791417E0,-2.996168849E0,2.256690489E0,1.664646163E0,4.103745433E0
9.517818417E0,-3.002401981E0,2.239626267E0,1.803452046E0,4.157256638E0
9.527845417E0,-2.846443875E0,2.060388350E0,1.791533082E0,3.944240569E0
9.537873417E0,-2.681068245E0,1.825983122E0,1.779335205E0,3.699780408E0
9.547900417E0,-2.500388111E0,1.591396631E0,1.747391281E0,3.440619164E0
9.557927417E0,-2.413894928E0,1.346246560E0,1.472558697E0,3.131724387E0
9.567954417E0,-2.469783200E0,1.009693691E0,9.556771123E-1,2.834189328E0
9.577981417E0,-2.259250107E0,8.421379253E-1,5.897466624E-1,2.482178168E0
9.588009417E0,-2.168663288E0,6.960645381E-1,6.039284992E-1,2.356339520E0
9.598036417E0,-2.171493925E0,7.239659894E-1,1.053706852E0,2.519883083E0
9.608063417E0,-7.844033951E-1,6.124870688E-1,8.229055560E-1,1.291356902E0
9.618090417E0,-3.201005584E-1,7.713679048E-1,8.254227823E-1,1.174221266E0
9.628117417E0,7.713529944E-2,1.166543496E0,9.248792428E-1,1.490696212E0
9.638144417E0,4.042314667E-1,1.345231191E0,7.323941660E-1,1.584124758E0
9.648172417E0,2.731538486E-1,1.533960016E0,4.404847519E-1,1.619158168E0
9.658199417E0,3.232428521E-1,1.689947942E0,1.598044038E-3,1.720584942E0
9.668226417E0,3.294584423E-1,1.797106940E0,-5.115127442E-1,1.897309017E0
9.678253417E0,4.627275968E-1,1.865523456E0,-8.234527823E-1,2.091021061E0
9.688280417E0,7.584002423E-1,1.860725231E0,-8.223728746E-1,2.171121014E0
9.698308417E0,8.305583918E-1,1.829301417E0,-4.426898465E-1,2.057217834E0
9.708335417E0,1.022756955E0,1.917206410E0,-1.767608906E-1,2.180127662E0
9.718362417E0,1.407568649E0,1.850375952E0,-2.235309414E-1,2.335616995E0
9.728389417E0,1.751923458E0,1.834833760E0,-6.715270630E-1,2.624271199E0
9.738416417E0,2.379756544E0,1.699557841E0,-1.224828030E0,3.170479738E0
9.748443417E0,3.102582327E0,1.824208492E0,-1.687822918E0,3.975235832E0
9.758471417E0,3.800490199E0,1.926498513E0,-2.013575980E0,4.712707343E0
9.768498417E0,4.157527619E0,1.816547762E0,-1.932180837E0,4.931349153E0
9.778525417E0,5.026680558E0,1.475805363E0,-1.848642837E0,5.555447708E0
9.788552417E0,5.169212871E0,1.111427642E0,-1.350373524E0,5.457063475E0
9.798579417E0,5.097326617E0,1.103042442E0,-8.086167882E-1,5.277622796E0
9.808607417E0,5.323123866E0,9.890506804E-1,-4.915077384E-1,5.436492325E0
9.818634417E0,5.499972319E0,9.240767124E-1,-2.091899872E-2,5.577100580E0
9.828661417E0,5.728684990E0,6.621249595E-1,5.532210065E-1,5.793297391E0
9.838688417E0,5.033159273E0,5.585970828E-1,9.067289007E-1,5.144597192E0
9.848715417E0,3.762607843E0,4.322712046E-1,7.042386532E-1,3.852275724E0
9.858742417E0,2.465334054E0,1.270386538E-1,4.315147211E-1,2.506035868E0
9.868770417E0,1.862776142E0,-2.417271110E-1,1.848914440E-1,1.887472330E0
9.878797417E0,2.584808457E0,-6.576141250E-1,-4.522610807E-1,2.705222945E0
9.888824417E0,2.103636403E0,-4.931781417E-1,3.451001827E-1,2.188059627E0
9.898851417E0,2.360328586E0,-3.946891031E-1,9.074258888E-1,2.559365598E0
9.908878417E0,2.981302303E0,-8.983504254E-1,1.649263747E0,3.523530589E0
9.918906417E0,1.247370143E0,-1.438164205E0,2.026414419E0,2.780396366E0
9.928933417E0,1.218998283E0,-9.782953119E-1,2.017154183E0,2.551848258E0
9.938960417E0,1.578494457E0,-1.058499230E0,1.947079543E0,2.720879291E0
9.948987417E0,1.130888345E0,-1.802281141E0,1.402823049E0,2.548536495E0
9.959014417E0,8.451407629E-1,-1.760399143E0,1.195732066E0,2.289769252E0
9.969042417E0,2.478769201E-1,-1.543471389E0,1.116172803E0,1.920830191E0
9.979069417E0,-3.637856913E-1,-1.365440337E0,1.052882395E0,1.762194280E0
9.989096417E0,-9.504245585E-1,-1.206553362E0,1.154954169E0,1.921717198E0
9.999123417E0,-1.350289325E0,-1.085743016E0,1.135823248E0,2.071765819E0
1.000915042E1,-1.626269132E0,-9.441750544E-1,1.037048135E0,2.147483797E0
1.001917742E1,-1.930833054E0,-9.269795626E-1,9.290557627E-1,2.334641729E0
1.002920542E1,-2.230799310E0,-1.046040495E0,7.532019214E-1,2.576427646E0
1.003923242E1,-2.490656006E0,-1.229761692E0,4.930651443E-1,2.821133530E0
1.004925942E1,-2.775303141E0,-1.364916719E0,2.870677368E-1,3.106076796E0
1.005928642E1,-3.071140094E0,-1.477031524E0,1.862466824E-1,3.412947616E0
1.006931342E1,-3.471811776E0,-1.701161440E0,1.309323147E-2,3.866212447E0
1.007934142E1,-3.684054009E0,-2.010361911E0,-2.201200412E-1,4.202649378E0
1.008936842E1,-3.765523850E0,-2.229099525E0,-5.010960026E-1,4.404446816E0
1.009939542E1,-3.868795618E0,-2.527324480E0,-7.159104265E-1,4.676267347E0
1.010942242E1,-3.636351255E0,-2.682090338E0,-8.014335568E-1,4.589003680E0
1.011944942E1,-3.190072460E0,-2.885677523E0,-8.488177845E-1,4.384539736E0
1.012947642E1,-2.655642212E0,-3.156014183E0,-8.770045799E-1,4.216870654E0
1.013950442E1,-2.292790906E0,-3.084830180E0,-7.371269023E-1,3.913620248E0
1.014953142E1,-1.977056463E0,-2.777962455E0,-4.551428810E-1,3.439910276E0
1.015955842E1,-1.395093614E0,-2.602928393E0,-2.291988668E-1,2.962103060E0
1.016958542E1,-1.084736272E0,-2.583529671E0,-1.651858887E-1,2.806878109E0
1.017961242E1,-9.455438876E-1,-2.628259409E0,-3.738601515E-1,2.818079519E0
1.018964042E1,-4.474382973E-1,-2.721757264E0,-1.175912782E0,2.998488704E0
1.019966742E1,7.152197242E-2,-2.950546533E0,-1.778344102E0,3.445772480E0
1.020969504E1,-7.419064164E-2,-2.845947154E0,-3.436142591E0,4.462285890E0
1.021972204E1,1.170273435E-1,-2.393462125E0,-3.443036458E0,4.194860712E0
1.022974904E1,-5.812775552E-1,-1.844781920E0,-2.742355835E0,3.355833646E0
1.023977604E1,-1.777933043E0,-1.464289857E0,-2.496652910E0,3.396831824E0
1.024980404E1,-1.660561298E0,-1.559087841E0,-2.073282922E0,3.080052076E0
1.025983104E1,-8.143265212E-1,-1.944911834E0,-1.250099038E0,2.451235878E0
1.026985804E1,4.389902401E-1,-2.176289666E0,-2.529043561E-1,2.234481988E0
1.027988504E1,1.141672949E0,-2.343654081E0,2.034117687E-1,2.614862887E0
1.028991204E1,1.616902478E0,-2.435316495E0,-1.492811698E-1,2.927016386E0
1.029993904E1,2.274650504E0,-2.736793379E0,-7.942132688E-1,3.646210037E0
1.030996704E1,1.706610460E0,-2.899100099E0,-1.089949649E0,3.536282071E0
1.031999404E1,5.010777301E-1,-2.641546914E0,-1.463396695E0,3.061107459E0
1.033002104E1,3.981503624E-1,-2.318154373E0,-1.668448023E0,2.883761816E0
1.034004804E1,1.308752459E0,-2.107904432E0,-1.403388475E0,2.850542633E0
1.035007504E1,2.453119805E0,-2.469056976E0,-1.144380210E0,3.663829307E0
1.036010304E1,3.556751354E0,-3.153580572E0,-1.053012788E0,4.868715082E0
1.037013004E1,3.759844449E0,-3.279757054E0,-4.558571184E-1,5.010094044E0
1.038015704E1,2.950300950E0,-2.445255007E0,7.640159082E-1,3.907335161E0
1.039018404E1,1.908516571E0,-1.131097967E0,1.891784471E0,2.915590266E0
1.040021104E1,8.621503133E-1,3.576464072E-1,2.496753190E0,2.665518825E0
1.041023804E1,2.518588740E-1,1.242812969E0,2.076865803E0,2.433390337E0
1.042026604E1,-1.977417237E-1,1.342852251E0,9.604244667E-1,1.662759488E0
1.043029304E1,-1.249725401E-1,1.138284342E0,-1.722200891E-1,1.158002218E0
1.044032004E1,4.903036505E-1,9.538372859E-1,-9.966617087E-1,1.464082579E0
1.045034704E1,9.099735206E-1,-1.420816393E-1,-8.412810159E-1,1.247394384E0
1.046037404E1,1.325398897E0,-6.697658086E-1,-1.816183189E-1,1.496079439E0
1.047040204E1,1.891059709E0,-9.734472392E-1,4.985216197E-1,2.184543466E0
1.048042904E1,1.974954974E0,-5.798762700E-1,1.307598511E0,2.438548237E0
1.049045604E1,1.894073364E0,-2.886448771E-2,1.808947113E0,2.619281719E0
1.050048304E1,1.625789661E0,5.125563991E-1,2.408437722E0,2.950674218E0
1.051051004E1,1.128737154E0,1.079531665E0,1.993336281E0,2.532355763E0
1.052053704E1,4.183127314E-1,1.623192328E0,1.471812007E0,2.230688113E0
1.053056504E1,2.305732548E-2,2.118198894E0,1.408111271E0,2.543634318E0
1.054059204E1,3.470240629E-1,2.448879989E0,1.859271321E0,3.094241223E0
1.055061904E1,4.660055459E-1,2.862178440E0,2.133900422E0,3.600382980E0
1.056064604E1,8.894749367E-1,3.250740246E0,2.667152456E0,4.297927412E0
1.057067304E1,1.595249653E0,3.588925658E0,2.924035842E0,4.896447124E0
1.058070004E1,3.606276101E-1,3.517315100E0,1.928113514E0,4.027304249E0
1.059072804E1,-3.187169318E0,2.826010196E0,1.157974402E0,4.414214154E0
1.060075504E1,-5.087540132E0,2.474992777E0,1.649622327E0,5.893208605E0
1.061078204E1,-4.096521279E0,2.747669493E0,2.628903480E0,5.589481884E0
1.062080904E1,-2.847116305E0,2.808025622E0,3.762638834E0,5.490767719E0
1.063083604E1,-2.503270789E0,2.965800165E0,4.450809338E0,5.905255204E0
1.064086404E1,-2.678481436E0,2.518863559E0,5.260715364E0,6.418260089E0
1.065089104E1,-2.457637364E0,1.030456861E0,7.211983852E0,7.688597651E0
1.066091804E1,-3.031045151E0,-1.420447726E0,8.339300133E0,8.986035453E0
1.067094504E1,-4.102786571E0,-3.188161298E0,1.106392721E1,1.222324488E1
1.068097204E1,-2.531241530E0,1.718137076E-1,1.312871237E1,1.337160395E1
1.069099904E1,1.393835878E0,6.143259596E0,1.155255213E1,1.315841470E1
1.070102704E1,5.017893362E0,9.818994187E0,7.593769612E0,1.338869813E1
1.071105404E1,8.559201050E0,1.222283717E1,-9.806154140E-1,1.495390510E1
1.072108104E1,5.182134048E0,9.639428533E0,-1.706301844E1,2.027115424E1
1.073110804E1,3.953280868E0,5.281073615E0,-1.230434618E1,1.396119992E1
1.074113504E1,-7.615187379E0,-2.940601589E0,-1.522391475E1,1.727442610E1
1.075116204E1,-7.939008520E0,-9.224636410E0,-1.953315364E1,2.301447076E1
1.076119004E1,-7.894052203E0,-9.142768959E0,-1.937856496E1,2.283495269E1
1.077121704E1,1.609992238E0,2.608855131E-1,-1.289631713E1,1.299904349E1
1.078124404E1,-2.026539695E0,1.060561835E0,-3.892148813E0,4.514474158E0
1.079127104E1,1.977046523E0,1.270708427E0,-2.974151158E0,3.790644797E0
1.080129804E1,3.361063757E0,2.036452188E0,-1.874411516E0,4.353998808E0
1.081132604E1,3.437519025E0,2.025797976E0,-2.658919576E0,4.794814679E0
1.082135304E1,6.154428948E0,1.346803799E0,3.522292542E-1,6.309908208E0
1.083138004E1,4.613181839E0,1.621736079E0,4.897391603E0,6.920687762E0
1.084140704E1,2.239753736E0,1.779139616E0,3.266877977E0,4.342156870E0
1.085143404E1,3.104865664E0,1.467155870E0,4.128430120E0,5.369978807E0
1.086146104E1,2.957048637E0,2.714458185E0,4.867393633E0,6.309036428E0
1.087148904E1,1.496246937E0,2.231262994E0,3.175758476E0,4.159655196E0
1.088151604E1,1.159344989E-1,5.825914246E-1,5.675079471E-1,8.215344460E-1
1.089154304E1,-1.013082737E-1,1.310603687E-1,-2.955973919E0,2.960611761E0
1.090157004E1,-6.143727958E-2,-4.247467151E-1,-5.164909320E0,5.182709002E0
1.091159704E1,1.149160894E0,-1.334939214E0,-8.805057172E0,8.979513643E0
1.092162404E1,2.430853608E0,-1.820924111E0,-7.196036156E0,7.810745819E0
1.093165204E1,2.050745414E0,-2.614074356E0,-6.856551786E-1,3.392501218E0
1.094167904E1,2.890555855E0,-4.154067822E0,1.112700434E0,5.181669120E0
1.095170604E1,2.710806014E0,-3.910070529E0,5.963373515E0,7.628823269E0
1.096173304E1,1.791825442E0,-4.358200844E0,4.328446995E0,6.398437810E0
1.097176004E1,-5.201940322E-1,-5.672632996E0,-3.218562434E0,6.542821339E0
1.098178704E1,-2.085457994E0,-4.548727688E0,1.537159320E0,5.234779595E0
1.099181504E1,-1.751527017E0,-4.213112713E0,3.106479496E-1,4.573255708E0
1.100184204E1,-1.988383690E0,-3.219670481E0,-1.745855802E-1,3.788195854E0
1.101186904E1,-1.237687154E0,-2.124246961E0,2.428269138E0,3.455544190E0
1.102189604E1,-3.094252968E-1,-2.311698170E0,5.194752632E-1,2.389465838E0
1.103192304E1,-1.665088212E-1,-2.412834536E0,3.355760917E-2,2.418805862E0
1.104195104E1,4.296346951E-1,-1.843351399E0,-6.777206531E-1,2.010431704E0
1.105197804E1,3.229218400E-1,-1.315692519E0,-1.359903024E0,1.919547226E0
1.106200504E1,-2.652811575E-1,-6.999625844E-1,-8.972379926E-1,1.168485228E0
1.107203204E1,-1.509400249E-2,-1.521656013E-1,-8.886330839E-1,9.016933829E-1
1.108205904E1,-3.743095100E-2,4.768345892E-2,-7.789695776E-1,7.813247667E-1
1.109208604E1,-5.702473676E-1,3.088619176E-1,-3.278545511E-1,7.266817399E-1
1.110211404E1,-1.018717114E0,4.738946092E-1,-4.056213498E-1,1.194524733E0
1.111214104E1,-1.123875194E0,5.374959433E-1,-2.653489852E-1,1.273737581E0
1.112216804E1,-1.353477226E0,1.180084478E0,3.387368041E-1,1.827359461E0
1.113219504E1,-3.404810286E-1,1.912990568E0,-4.310011894E-1,1.990281957E0
1.114222204E1,-8.284036928E-1,1.983177621E0,-4.742357942E-1,2.200942013E0
1.115225004E1,-9.179684186E-1,2.070482398E0,-5.559886399E-1,2.332099214E0
1.116227704E1,-5.616934758E-1,2.423873494E0,-5.083411413E-1,2.539502509E0
1.117230404E1,-1.229902171E0,2.156737015E0,-6.306786337E-1,2.561626327E0
1.118233104E1,-1.783996021E0,1.672632582E0,-1.167134357E0,2.709712930E0
1.119235804E1,-1.684031437E0,1.676715401E0,-1.581059631E0,2.854310069E0
1.120238504E1,-1.124082186E0,1.561517066E0,-1.647978090E0,2.533323527E0
1.121241283E1,-2.766247559E-1,1.824440919E0,-7.211561099E-1,1.981204698E0
1.122243983E1,-3.062385643E-1,1.843276555E0,-6.989206105E-2,1.869849035E0
1.123246683E1,-1.894755149E-1,1.927039673E0,2.567389601E-1,1.953278722E0
1.124249383E1,-1.662316632E-1,1.786631068E0,2.546228528E-1,1.812323464E0
1.125252083E1,-1.581432098E-1,1.267674307E0,-5.148564014E-1,1.377346920E0
1.126254783E1,-4.393504286E-1,4.441910461E-1,-1.110637975E0,1.274304201E0
1.127257583E1,-6.982861876E-1,-3.049030602E-3,-8.007829079E-1,1.062481135E0
1.128260283E1,-1.609147900E-1,-3.520345420E-1,-6.550325793E-1,7.608479272E-1
1.129262983E1,1.243901575E-1,-4.599872991E-1,2.930627409E-1,5.594166575E-1
1.130265683E1,1.556131196E-1,-4.472889009E-1,9.278703859E-1,1.041741934E0
1.131268383E1,1.143791395E-1,-4.305073920E-1,8.707287633E-1,9.780530566E-1
1.132271183E1,-2.393323839E-2,-3.764329264E-1,1.007729611E0,1.076008140E0
1.133273883E1,-2.764148408E-1,-9.361488739E-1,4.297174332E-1,1.066506892E0
1.134276583E1,-6.477908027E-1,-1.652807890E0,1.166718328E-1,1.779050073E0
1.135279283E1,-2.601262522E-1,-2.033865087E0,-1.183391663E-1,2.053844448E0
1.136281983E1,4.842272240E-1,-2.328102534E0,1.485695636E-1,2.382563814E0
1.137284683E1,4.519839227E-1,-2.372697932E0,6.793768770E-1,2.509091047E0
1.138287483E1,5.780200714E-1,-2.683334625E0,1.105843843E0,2.959270606E0
1.139290183E1,6.007400125E-1,-2.830938814E0,9.346107638E-1,3.041151165E0
1.140292883E1,5.467766440E-1,-2.428666749E0,9.629785305E-1,2.669216088E0
1.141295583E1,2.224163890E-1,-2.888259069E0,3.019069469E-1,2.912500181E0
1.142298283E1,5.305114442E-1,-3.198409713E0,9.414134145E-2,3.243474938E0
1.143301083E1,1.251318183E0,-2.896796588E0,-1.916843006E-1,3.161324175E0
1.144303783E1,8.127647299E-1,-1.857487628E0,-1.574280953E-1,2.033624940E0
1.145306483E1,9.981881243E-1,-1.866825339E0,-1.020535890E0,2.350087207E0
1.146309183E1,1.330000656E0,-2.335817935E0,-1.881696562E0,3.281117054E0
1.147311883E1,1.526784605E0,-2.924564723E0,-2.368852072E0,4.061478818E0
1.148314583E1,1.386372492E0,-3.828133496E0,-2.658696797E0,4.862643665E0
1.149317383E1,1.146214482E0,-4.270428875E0,-2.652278894E0,5.156059905E0
1.150320083E1,8.326937950E-1,-3.706111753E0,-2.351268325E0,4.467337688E0
1.151322783E1,2.069329619E-2,-3.473496066E0,-1.831594695E0,3.926874363E0
1.152325483E1,-7.835847849E-1,-2.673286185E0,-8.611001533E-1,2.915811657E0
1.153328183E1,-1.172118816E0,-1.447779951E0,2.815130281E-1,1.883926456E0
1.154330983E1,-1.293253244E0,-4.353866011E-1,1.380823485E0,1.941324018E0
1.155333683E1,-1.061995280E0,-5.877533466E-2,2.093670993E0,2.348349792E0
1.156336383E1,-3.046095300E-1,-5.578641343E-1,2.262559631E0,2.350143707E0
1.157339083E1,7.565379041E-1,-1.042539547E0,2.030043055E0,2.404228174E0
1.158341783E1,1.773510209E0,-1.109509462E0,1.208078900E0,2.415740950E0
1.159344483E1,1.771064318E0,-1.410776724E0,4.726199162E-1,2.313077900E0
1.160347283E1,1.330169640E0,-1.095710326E0,1.755658659E-1,1.732268964E0
1.161349983E1,1.153440471E0,-2.098214865E-1,-1.445431709E-3,1.172370276E0
1.162352683E1,1.002291700E0,8.072753638E-1,-7.822697461E-2,1.289341547E0
1.163355383E1,7.042503476E-1,1.536023206E0,2.346984655E-1,1.705995080E0
1.164358083E1,2.653022075E-1,2.102049176E0,5.893278556E-1,2.199159686E0
1.165360883E1,-1.187154347E-1,2.476925282E0,9.910387337E-1,2.670469992E0
1.166363583E1,-5.160401702E-1,2.585393471E0,1.324228869E0,2.950277776E0
1.167366283E1,-1.019837440E0,2.665339819E0,1.527421221E0,3.236838016E0
1.168368983E1,-1.559026737E0,2.722675862E0,1.655140929E0,3.547255236E0
1.169371683E1,-2.031201680E0,2.793116684E0,1.692854155E0,3.846171637E0
1.170374383E1,-2.349726999E0,2.840217760E0,1.590364890E0,4.014637515E0
1.171377183E1,-2.527315709E0,2.935558366E0,1.543799857E0,4.169909544E0
1.172379883E1,-2.536035077E0,3.033474669E0,1.430495143E0,4.204730531E0
1.173382583E1,-2.343704367E0,2.852894524E0,1.385316485E0,3.943483116E0
1.174385283E1,-1.837827827E0,3.051841359E0,1.201965929E0,3.759796390E0
1.175387983E1,-1.418802904E0,3.370339195E0,1.182580508E0,3.843264840E0
1.176390783E1,-1.607755094E0,2.947380851E0,9.834021239E-1,3.498429656E0
1.177393483E1,-1.987407205E0,2.320888531E0,5.005779393E-1,3.096270215E0
1.178396183E1,-2.264896179E0,1.747316144E0,6.139142279E-1,2.925706596E0
1.179398883E1,-2.646915243E0,1.109318843E0,9.549216521E-1,3.024669231E0
1.180401583E1,-2.739506487E0,6.021319422E-1,1.426526345E0,3.146813640E0
1.181404283E1,-2.568545596E0,4.307599917E-1,1.871907154E0,3.207337999E0
1.182407083E1,-2.212106931E0,4.038818032E-1,1.948133796E0,2.975191233E0
1.183409783E1,-1.782309099E0,6.656563854E-1,1.916377421E0,2.700412296E0
1.184412483E1,-1.101391481E0,9.596771926E-1,1.870562148E0,2.373403939E0
1.185415183E1,-1.309711987E-1,1.005054510E0,1.580507653E0,1.877576221E0
1.186417883E1,6.613551736E-1,9.385108566E-1,1.243177105E0,1.692241888E0
1.187420683E1,1.313499228E0,7.618512690E-1,1.036473865E0,1.838471009E0
1.188423383E1,1.971798647E0,7.932794684E-1,1.021872344E0,2.358284399E0
1.189426083E1,2.515827684E0,9.982249618E-1,1.078501385E0,2.913590096E0
1.190428783E1,2.742219595E0,1.467604936E0,9.830028322E-1,3.261890115E0
1.191431483E1,3.188670883E0,1.889092705E0,7.054273190E-1,3.772786894E0
1.192434183E1,3.696871691E0,2.045786390E0,7.784332417E-2,4.225891839E0
1.193436983E1,4.242285349E0,2.030218763E0,-6.914865337E-1,4.753622496E0
1.194439683E1,4.764991345E0,1.711843718E0,-1.474077803E0,5.273372432E0
1.195442383E1,5.186633481E0,1.249899648E0,-2.196131169E0,5.769437417E0
1.196445083E1,5.249568817E0,1.110934721E0,-2.704360628E0,6.008803136E0
1.197447783E1,5.136757901E0,1.192352521E0,-3.013292420E0,6.073542416E0
1.198450583E1,4.705232801E0,1.327260066E0,-3.005605670E0,5.738858810E0
1.199453283E1,4.140572448E0,1.303077736E0,-2.658337194E0,5.090099058E0
1.200455983E1,3.848723881E0,1.588841690E0,-1.910025883E0,4.580970673E0
1.201458683E1,3.707946317E0,1.403467412E0,-1.491629391E0,4.235982166E0
1.202461383E1,4.183263554E0,-4.298744309E-1,-1.344830949E0,4.415094140E0
1.203464083E1,4.706289393E0,-7.219381750E-1,-1.443446580E-1,4.763527050E0
1.204466883E1,4.024998137E0,-3.649258983E-1,7.800114052E-1,4.116090221E0
1.205469583E1,3.621766545E0,-5.345255578E-1,8.125583231E-1,3.750088199E0
1.206472283E1,3.451404993E0,-8.250351119E-1,6.924160217E-1,3.615566250E0
1.207474983E1,2.782307521E0,-5.769599712E-1,6.255462402E-1,2.909540522E0
1.208477683E1,2.072165519E0,-2.276888233E-1,5.792006242E-1,2.163604747E0
1.209480383E1,1.671699075E0,-3.706041294E-1,7.234847635E-1,1.858858634E0
1.210483183E1,1.709027699E0,-6.357168871E-1,1.247117543E0,2.209120595E0
1.211485883E1,1.899037650E0,-9.477488726E-1,1.829073814E0,2.801799946E0
1.212488583E1,2.095381304E0,-1.247374236E0,2.071421168E0,3.199586059E0
1.213491283E1,2.163014293E0,-1.444934988E0,1.961198230E0,3.257724121E0
1.214493983E1,2.139843532E0,-1.625046772E0,1.794578165E0,3.231132641E0
1.215496783E1,2.054331511E0,-1.583213160E0,1.661583538E0,3.080211311E0
1.216499483E1,1.761005353E0,-1.420276695E0,1.561076917E0,2.748688212E0
1.217502183E1,1.324186184E0,-1.270478339E0,1.488150882E0,2.362663182E0
1.218504883E1,8.885411364E-1,-1.192332933E0,1.416529946E0,2.053708904E0
1.219507583E1,4.031403762E-1,-1.127381477E0,1.410072281E0,1.849814854E0
1.220510283E1,-1.099761862E-1,-1.026484847E0,1.368306935E0,1.714068193E0
1.221513033E1,-5.649661624E-1,-8.971716267E-1,1.278908416E0,1.661237620E0
1.222515733E1,-1.034118680E0,-8.259583873E-1,1.142971762E0,1.748711854E0
1.223518433E1,-1.413072633E0,-1.028188726E0,8.200975768E-1,1.930416110E0
1.224521133E1,-1.225353622E0,-5.649120757E-1,3.012427032E-1,1.382521001E0
1.225523833E1,-1.892996891E0,-8.668283781E-1,2.152482873E-1,2.093122188E0
1.226526633E1,-2.351712129E0,-9.902815193E-1,-1.054157965E-1,2.553883301E0
1.227529333E1,-2.777670679E0,-1.034963895E0,-3.997814432E-2,2.964490330E0
1.228532033E1,-3.382240618E0,-1.086914798E0,2.720987186E-2,3.552699784E0
1.229534733E1,-3.748740587E0,-1.145169877E0,1.380188477E-1,3.922182968E0
1.230537433E1,-3.950025138E0,-1.342278639E0,1.727350827E-1,4.175433863E0
1.231540133E1,-4.054937051E0,-1.619733261E0,1.262916720E-1,4.368294852E0
1.232542933E1,-4.151272268E0,-1.955039065E0,3.451918378E-2,4.588728665E0
1.233545633E1,-4.308664110E0,-2.237215752E0,-1.519327359E-1,4.857242458E0
1.234548333E1,-4.440628751E0,-2.416911945E0,-4.737729871E-1,5.077903888E0
1.235551033E1,-4.484023862E0,-2.597416808E0,-8.624504216E-1,5.253271818E0
1.236553733E1,-4.333137047E0,-2.757523513E0,-1.135757467E0,5.260224103E0
1.237556533E1,-4.232681882E0,-2.882491960E0,-1.238063276E0,5.268506096E0
1.238559233E1,-4.137538912E0,-2.996847126E0,-1.191911203E0,5.246043582E0
1.239561933E1,-3.883483239E0,-3.176558083E0,-1.060927140E0,5.128111711E0
1.240564633E1,-3.779403386E0,-3.308013431E0,-8.396912310E-1,5.092339754E0
1.241567333E1,-3.558122526E0,-3.488732448E0,-7.844438870E-1,5.044486318E0
1.242570033E1,-3.296343266E0,-3.780298010E0,-8.928640560E-1,5.094481150E0
1.243572833E1,-3.222687644E0,-3.889354429E0,-1.054196922E0,5.159857040E0
1.244575533E1,-3.113965101E0,-4.025198112E0,-1.231692004E0,5.236035111E0
1.245578233E1,-2.806307418E0,-4.234284019E0,-1.369213838E0,5.261109105E0
1.246580933E1,-2.264171124E0,-4.386190004E0,-1.496037022E0,5.157834856E0
1.247583633E1,-1.846686358E0,-4.545125511E0,-1.386051480E0,5.097995207E0
1.248586333E1,-1.375194370E0,-4.706410138E0,-9.910235310E-1,5.002357802E0
1.249589133E1,-7.723183697E-1,-4.802108593E0,-6.754007703E-1,4.910487634E0
1.250591833E1,-4.015382391E-1,-4.638713121E0,-2.716825430E-1,4.663979394E0
1.251594533E1,-3.298478669E-1,-4.376519001E0,2.448088130E-1,4.395753580E0
1.252597233E1,-8.056118309E-2,-4.029443775E0,5.406054195E-1,4.066344976E0
1.253599933E1,-3.459154308E-2,-3.477361368E0,5.177901687E-1,3.515870492E0
1.254602633E1,2.029053998E-1,-2.903722615E0,3.812472314E-1,2.935664333E0
1.255605433E1,1.205346789E0,-2.582715738E0,1.449700177E-1,2.853821608E0
1.256608133E1,2.277784612E0,-2.610067844E0,-2.974689102E-1,3.476959108E0
1.257610833E1,2.735050909E0,-2.710208429E0,-6.075156198E-1,3.898051876E0
1.258613533E1,2.976898180E0,-2.800360507E0,-8.815860195E-1,4.181044804E0
1.259616233E1,3.460602663E0,-2.796424161E0,-1.097546352E0,4.582615724E0
1.260619033E1,4.054815429E0,-2.556359414E0,-1.140902871E0,4.927287385E0
1.261621733E1,4.257477584E0,-1.936264240E0,-6.936329734E-1,4.728251399E0
1.262624433E1,3.940493592E0,-1.110334797E0,-1.420475793E-1,4.096402156E0
1.263627133E1,3.462432257E0,2.585556901E-1,6.351980929E-1,3.529697550E0
1.264629833E1,3.369563270E0,1.588557808E0,9.095431656E-1,3.834676167E0
1.265632533E1,3.496913288E0,2.347625802E0,9.929031184E-1,4.327309331E0
1.266635333E1,3.321080496E0,3.048980316E0,7.689053500E-1,4.573518565E0
1.267638033E1,2.960023116E0,2.542594191E0,2.461531609E-1,3.909873840E0
1.268640733E1,2.674860256E0,1.087784717E0,4.410484600E-1,2.921074584E0
1.269643433E1,2.290217546E0,9.494945589E-1,2.814674199E-1,2.495167376E0
1.270646133E1,2.104245098E0,6.886757040E-1,2.811160022E-1,2.231848531E0
1.271648933E1,1.891801136E0,7.694593737E-1,5.233379339E-1,2.108284103E0
1.272651633E1,1.526383486E0,1.134115715E0,7.047606634E-1,2.027992257E0
1.273654333E1,1.049137838E0,1.685085105E0,8.902684039E-1,2.175495310E0
1.274657033E1,5.454007941E-1,2.347221467E0,1.055719171E0,2.630865563E0
1.275659733E1,-7.396143079E-3,2.929194256E0,1.154998023E0,3.148690859E0
1.276662433E1,-4.894411862E-1,3.341416528E0,1.177827014E0,3.576575675E0
1.277665233E1,-9.323461372E-1,3.680319393E0,1.108490585E0,3.955094377E0
1.278667933E1,-1.350710909E0,3.872944218E0,1.014034663E0,4.225208063E0
1.279670633E1,-1.720884098E0,3.986441890E0,9.398403673E-1,4.442573684E0
1.280673333E1,-2.075488492E0,4.030058318E0,8.785622782E-1,4.617455382E0
1.281676033E1,-2.412433124E0,4.074952947E0,8.288819951E-1,4.807506678E0
1.282678733E1,-2.541182381E0,4.011569422E0,7.341489154E-1,4.805129733E0
1.283681533E1,-2.500966986E0,3.901071372E0,5.650258040E-1,4.668238198E0
1.284684233E1,-2.232367533E0,3.821711499E0,3.678565228E-1,4.441200514E0
1.285686933E1,-2.064542504E0,3.684597800E0,2.993770029E-1,4.234173271E0
1.286689633E1,-1.894642882E0,3.573435507E0,2.286460125E-1,4.051097625E0
1.287692333E1,-1.713765698E0,3.321007406E0,1.443032889E-1,3.739907285E0
1.288695033E1,-1.689182834E0,2.855491565E0,3.534393355E-2,3.317893898E0
1.289697833E1,-1.421196755E0,2.468552946E0,6.369372010E-2,2.849142108E0
1.290700533E1,-1.107733371E0,2.345952913E0,5.520198423E-1,2.652412901E0
1.291703233E1,-9.249575955E-1,2.148330473E0,1.142825289E0,2.603251816E0
1.292705933E1,-4.233992243E-1,1.576675681E0,1.553631950E0,2.253651557E0
1.293708633E1,3.664105064E-1,1.437311973E0,1.756312817E0,2.298859952E0
1.294711433E1,6.218010986E-1,1.544856887E0,1.751566778E0,2.416858619E0
1.295714133E1,1.000222371E0,1.657407018E0,1.459023562E0,2.424085924E0
1.296716833E1,1.330830376E0,1.752046834E0,1.174814383E0,2.494186527E0
1.297719533E1,1.604896390E0,1.773005594E0,9.592040066E-1,2.576686552E0
1.298722233E1,1.923484274E0,1.616456043E0,9.353421043E-1,2.680967501E0
1.299724933E1,2.139685072E0,1.351390940E0,1.072517783E0,2.748600385E0
1.300727733E1,2.305285236E0,1.171227993E0,1.111698514E0,2.814602746E0
1.301730433E1,2.469580886E0,1.051867611E0,9.409074841E-1,2.844391344E0
1.302733133E1,2.619496479E0,8.731056565E-1,6.260904698E-1,2.831265542E0
1.303735833E1,2.866314468E0,5.685168841E-1,2.440832466E-1,2.932327865E0
1.304738533E1,3.090929410E0,2.188317534E-1,-1.117880921E-1,3.100681947E0
1.305741233E1,3.175937986E0,-3.345806032E-2,-4.467559272E-1,3.207380924E0
1.306744033E1,3.170838044E0,-1.533645728E-1,-6.910046500E-1,3.248880118E0
1.307746733E1,3.330613212E0,-7.510894686E-2,-7.767230773E-1,3.420807574E0
1.308749433E1,3.739766280E0,-1.101381540E-2,-9.349048787E-1,3.854869682E0
1.309752133E1,4.311372541E0,-1.988775453E-1,-1.165004509E0,4.470427381E0
1.310754833E1,4.667443416E0,-4.061587089E-1,-1.252082999E0,4.849505621E0
1.311757533E1,4.703266967E0,-4.653974354E-1,-1.193985064E0,4.874722071E0
1.312760333E1,4.670819598E0,-5.156030908E-1,-1.057347036E0,4.816677799E0
1.313763033E1,4.410664110E0,-5.632593602E-1,-8.616211402E-1,4.529195291E0
1.314765733E1,3.961925976E0,-5.727818432E-1,-7.713525559E-1,4.076753763E0
1.315768433E1,3.604871015E0,-5.991595101E-1,-7.030189240E-1,3.721333465E0
1.316771133E1,3.329932596E0,-4.557422206E-1,-5.408577999E-1,3.404214921E0
1.317773833E1,3.026081450E0,-2.104909927E-1,-2.772433913E-1,3.046036654E0
1.318776633E1,2.970886658E0,-5.496353477E-2,2.909907800E-1,2.985609512E0
1.319779333E1,3.093123286E0,-1.535736108E-1,9.124094707E-1,3.228542637E0
1.320782033E1,3.206839936E0,-3.725644085E-1,1.472052036E0,3.548177533E0
1.321784779E1,3.257965651E0,-6.878898382E-1,1.499983015E0,3.652051705E0
1.322787479E1,3.133487785E0,-1.216028190E0,9.636965686E-1,3.496595678E0
1.323790179E1,2.891977313E0,-1.772348367E0,3.677536118E-1,3.411743577E0
1.324792979E1,2.494045052E0,-2.218299717E0,2.814586490E-2,3.337949452E0
1.325795679E1,1.951590670E0,-2.506368351E0,5.094079658E-2,3.176977088E0
1.326798379E1,1.319263414E0,-2.641612988E0,3.335725433E-1,2.971505641E0
1.327801079E1,6.802065969E-1,-2.683139913E0,6.704417467E-1,2.848054238E0
1.328803779E1,8.324388564E-2,-2.746854098E0,8.958524948E-1,2.890447833E0
1.329806479E1,-5.137802213E-1,-2.816681548E0,1.022368115E0,3.040214075E0
1.330809279E1,-1.172104198E0,-2.935000249E0,9.456374431E-1,3.298830836E0
1.331811979E1,-1.892803933E0,-3.005354240E0,7.253596732E-1,3.625052757E0
1.332814679E1,-2.543508403E0,-3.115254997E0,4.620227149E-1,4.048174117E0
1.333817379E1,-3.139563627E0,-3.112224385E0,1.866539410E-1,4.424662708E0
1.334820079E1,-3.530794979E0,-3.023360741E0,-8.355905056E-2,4.649108029E0
1.335822779E1,-3.808535968E0,-2.927443892E0,-3.277893546E-1,4.814802158E0
1.336825579E1,-3.983102837E0,-2.846245070E0,-5.682271546E-1,4.928397438E0
1.337828279E1,-4.173015139E0,-2.789132099E0,-7.979350215E-1,5.082323633E0
1.338830979E1,-4.324436975E0,-2.789585550E0,-1.030797169E0,5.248341213E0
1.339833679E1,-4.416199084E0,-2.872185073E0,-1.212038342E0,5.405672797E0
1.340836379E1,-4.449695444E0,-2.952033188E0,-1.415883097E0,5.524401726E0
1.341839079E1,-4.462120192E0,-2.983110262E0,-1.532223685E0,5.581861058E0
1.342841879E1,-4.351807206E0,-3.053152304E0,-1.570315956E0,5.543090939E0
1.343844579E1,-4.177332138E0,-3.136468403E0,-1.601323741E0,5.463677842E0
1.344847279E1,-4.068071651E0,-3.234202274E0,-1.694256463E0,5.466239683E0
1.345849979E1,-4.000069703E0,-3.342768112E0,-1.846546610E0,5.530315602E0
1.346852679E1,-3.943563965E0,-3.472870999E0,-1.972940316E0,5.612933565E0
1.347855379E1,-3.881246679E0,-3.607936710E0,-2.086239767E0,5.695057459E0
1.348858179E1,-3.790646996E0,-3.735607740E0,-2.086381854E0,5.716358901E0
1.349860879E1,-3.730034174E0,-3.878153795E0,-1.953643042E0,5.724504602E0
1.350863579E1,-3.617136719E0,-4.040483611E0,-1.842389824E0,5.727441499E0
1.351866279E1,-3.392866178E0,-4.189320977E0,-1.693547781E0,5.650668565E0
1.352868979E1,-3.065223296E0,-4.299607066E0,-1.598174138E0,5.516917196E0
1.353871679E1,-2.724002010E0,-4.302529212E0,-1.518675687E0,5.313974069E0
1.354874479E1,-2.367055222E0,-4.319404276E0,-1.391456062E0,5.118237362E0
1.355877179E1,-2.020870235E0,-4.365670955E0,-1.266217181E0,4.974565844E0
1.356879879E1,-1.746746918E0,-4.481848990E0,-1.209816985E0,4.960015353E0
1.357882579E1,-1.454674403E0,-4.656638346E0,-1.153666758E0,5.013113333E0
1.358885279E1,-1.191004738E0,-4.873925849E0,-9.734658042E-1,5.110898272E0
1.359887979E1,-1.004573284E0,-4.943891001E0,-7.324771965E-1,5.097818019E0
1.360890779E1,-7.286022466E-1,-4.799795434E0,-5.365451860E-1,4.884340097E0
1.361893479E1,-4.217298442E-1,-4.572923175E0,-3.787466696E-1,4.607920514E0
1.362896179E1,-1.515358561E-1,-4.209165550E0,-1.798568451E-1,4.215730806E0
1.363898879E1,1.940720111E-1,-3.737658359E0,-5.337221503E-2,3.743073943E0
1.364901579E1,7.828217232E-1,-3.327955068E0,-9.833408743E-2,3.420199464E0
1.365904279E1,1.640665562E0,-3.230743353E0,-3.355790153E-1,3.638969549E0
1.366907079E1,2.415510514E0,-3.389695233E0,-6.714796275E-1,4.216113104E0
1.367909779E1,3.106153221E0,-3.690654931E0,-7.900547290E-1,4.888078163E0
1.368912479E1,3.782886572E0,-3.960680519E0,-5.298191339E-1,5.502538442E0
1.369915179E1,4.428120972E0,-3.866215827E0,1.272456452E-1,5.879802005E0
1.370917879E1,5.156922024E0,-2.707740026E0,1.102795689E0,5.928056945E0
1.371920579E1,5.110920809E0,-2.153288035E0,2.180619675E0,5.959300550E0
1.372923379E1,4.236833990E0,-5.564309818E-1,3.259274257E0,5.374313573E0
1.373926079E1,3.624427028E0,1.717758469E0,3.821187004E0,5.539732444E0
1.374928779E1,3.584471249E0,3.189202979E0,3.594754747E0,5.995140655E0
1.375931479E1,3.712776117E0,4.178586951E0,3.049597197E0,6.367522161E0
1.376934179E1,4.026569284E0,4.374523054E0,2.451080881E0,6.430980457E0
1.377936879E1,4.590598138E0,3.599320545E0,1.860408458E0,6.122893049E0
1.378939679E1,4.913418236E0,2.671328245E0,1.619362255E0,5.822371293E0
1.379942379E1,4.998826761E0,2.014996999E0,1.779271909E0,5.675763422E0
1.380945079E1,5.017388163E0,1.745752891E0,2.201820509E0,5.750639155E0
1.381947779E1,4.699406050E0,1.910953690E0,2.602277014E0,5.701579333E0
1.382950479E1,4.166094959E0,2.037189229E0,3.038961112E0,5.544526292E0
1.383953179E1,3.294080978E0,2.521533690E0,3.571538377E0,5.474028500E0
1.384955979E1,2.430439625E0,2.869786837E0,3.834806923E0,5.371076000E0
1.385958679E1,1.493912144E0,3.048241520E0,3.850392677E0,5.133134873E0
1.386961379E1,5.180551207E-1,3.131891787E0,3.609452308E0,4.806794487E0
1.387964079E1,-4.065475488E-1,3.133967841E0,3.190302840E0,4.490553146E0
1.388966779E1,-1.290821387E0,3.170525511E0,2.693743839E0,4.355996756E0
1.389969479E1,-2.090710548E0,3.201846414E0,2.202259635E0,4.412803933E0
1.390972279E1,-2.692814131E0,3.213718308E0,1.784296421E0,4.556637689E0
1.391974979E1,-3.128011867E0,3.192615707E0,1.466958088E0,4.704170418E0
1.392977679E1,-3.460838891E0,3.174532900E0,1.205557435E0,4.848549648E0
1.393980379E1,-3.650465848E0,3.124754676E0,9.154663950E-1,4.891632797E0
1.394983079E1,-3.701655883E0,3.055400559E0,6.824628912E-1,4.848039237E0
1.395985779E1,-3.655321376E0,2.958018398E0,4.681947434E-1,4.725510927E0
1.396988579E1,-3.436168318E0,2.856523598E0,3.981984557E-1,4.486149996E0
1.397991279E1,-3.169108438E0,2.769945922E0,4.091489750E-1,4.228859372E0
1.398993979E1,-2.918934147E0,2.619494433E0,4.564786774E-1,3.948455447E0
1.399996679E1,-2.661654904E0,2.456826940E0,5.878007090E-1,3.669593317E0
1.400999379E1,-2.320132486E0,2.330899841E0,7.494953714E-1,3.373107193E0
1.402002079E1,-1.964178556E0,2.213837122E0,9.492973615E-1,3.108092290E0
1.403004879E1,-1.592228982E0,2.086143873E0,1.294709786E0,2.926339491E0
1.404007579E1,-1.207537156E0,1.931126584E0,1.612505956E0,2.790622032E0
1.405010279E1,-8.204315990E-1,1.793564112E0,1.794426138E0,2.666448086E0
1.406012979E1,-3.784698039E-1,1.665460388E0,1.888638377E0,2.546360660E0
1.407015679E1,1.354384714E-1,1.581877656E0,2.020976070E0,2.570024275E0
1.408018379E1,5.285935575E-1,1.454463319E0,2.088703053E0,2.599529792E0
1.409021179E1,9.361772329E-1,1.365964540E0,2.065802579E0,2.647607832E0
1.410023879E1,1.246895349E0,1.390785386E0,1.936368759E0,2.690456462E0
1.411026579E1,1.484864162E0,1.531938341E0,1.721137721E0,2.741162476E0
1.412029279E1,1.739685236E0,1.786434894E0,1.463832166E0,2.891480410E0
1.413031979E1,2.027672301E0,1.971127094E0,1.090107378E0,3.030698117E0
1.414034679E1,2.444311559E0,1.860591622E0,8.389924157E-1,3.184394520E0
1.415037479E1,2.900286791E0,1.436309468E0,6.286948197E-1,3.296953979E0
1.416040179E1,3.362750094E0,7.977531731E-1,3.901032780E-1,3.478028017E0
1.417042879E1,3.541995905E0,1.296582064E-1,1.201993118E-1,3.546405803E0
1.418045579E1,3.601294858E0,-2.375308567E-1,-2.935028900E-1,3.621034315E0
1.419048279E1,3.380032125E0,-3.246707422E-1,-6.290288419E-1,3.453361484E0
1.420050979E1,2.774798527E0,-5.090118170E-2,-8.781197901E-1,2.910874810E0
1.421053671E1,2.799787772E0,5.061975521E-1,-1.086242660E0,3.045483648E0
1.422056471E1,2.686821905E0,6.936519769E-1,-1.036218707E0,2.962079375E0
1.423059171E1,2.545506397E0,6.595711881E-1,-1.111856827E0,2.854971554E0
1.424061871E1,2.856993422E0,5.432621750E-1,-1.552067381E0,3.296431155E0
1.425064571E1,2.644683945E0,8.578362375E-2,-1.772593950E0,3.184933486E0
1.426067271E1,2.439592271E0,-2.111125517E-1,-1.929968543E0,3.117845015E0
1.427069971E1,2.938267381E0,-4.995676866E-1,-2.061717714E0,3.624039598E0
1.428072771E1,2.519717837E0,-7.108775818E-1,-1.752487714E0,3.150482202E0
1.429075471E1,1.969669091E0,-6.436094588E-1,-1.614438169E0,2.626830802E0
1.430078171E1,2.272333837E0,-4.946571949E-1,-1.828623725E0,2.958386644E0
1.431080871E1,2.407336106E0,-3.931492388E-1,-1.534267580E0,2.881633297E0
1.432083571E1,2.436655800E0,-2.184116310E-1,-6.597045046E-1,2.533812377E0
1.433086271E1,3.189928619E0,-2.035711053E-1,2.342178243E-1,3.204987329E0
1.434089071E1,4.072496824E0,-4.816708213E-1,1.251127564E0,4.287488466E0
1.435091771E1,4.630782543E0,-7.430106631E-1,2.082654108E0,5.131633262E0
1.436094471E1,4.601302051E0,-1.024937966E0,2.615922661E0,5.391245660E0
1.437097171E1,4.012029013E0,-1.272845584E0,2.745867673E0,5.025564840E0
1.438099871E1,3.251575813E0,-1.581753695E0,2.557696964E0,4.429052244E0
1.439102571E1,2.407874635E0,-1.744253665E0,2.358186166E0,3.794907522E0
1.440105271E1,1.535623257E0,-1.728445133E0,2.289521143E0,3.253854396E0
1.441108071E1,7.890051538E-1,-1.660499902E0,2.385277339E0,3.011534002E0
1.442110771E1,1.231487936E-1,-1.685875795E0,2.407907672E0,2.941999690E0
1.443113471E1,-5.094562054E-1,-1.800748440E0,2.292230743E0,2.959148922E0
1.444116171E1,-1.180646396E0,-2.010988294E0,1.965634512E0,3.049871943E0
1.445118871E1,-1.784002452E0,-2.228927324E0,1.581416018E0,3.263687851E0
1.446121571E1,-2.326428183E0,-2.442824905E0,1.301029164E0,3.615568903E0
1.447124371E1,-2.810753641E0,-2.606127698E0,1.076432056E0,3.981324349E0
1.448127071E1,-3.249369074E0,-2.654235080E0,8.066144823E-1,4.272468860E0
1.449129771E1,-3.651755744E0,-2.657607461E0,4.579907674E-1,4.539598328E0
1.450132471E1,-4.008189147E0,-2.662564731E0,-6.596565574E-2,4.812398845E0
1.451135171E1,-4.291119540E0,-2.675756049E0,-5.348246428E-1,5.085215309E0
1.452137871E1,-4.522029594E0,-2.765499992E0,-9.910220692E-1,5.392482415E0
1.453140671E1,-4.720348438E0,-2.929904400E0,-1.476374882E0,5.748539985E0
1.454143371E1,-4.883086975E0,-3.134492921E0,-1.862131486E0,6.094023133E0
1.455146071E1,-4.879672201E0,-3.292504276E0,-2.156846650E0,6.269272100E0
1.456148771E1,-4.694950472E0,-3.483793598E0,-2.319680789E0,6.289697666E0
1.457151471E1,-4.484365924E0,-3.698622932E0,-2.259851494E0,6.236688072E0
1.458154171E1,-4.343118244E0,-3.789369380E0,-2.111409107E0,6.138407350E0
1.459156871E1,-4.184825345E0,-3.827623326E0,-2.016747363E0,6.019197075E0
1.460159671E1,-4.015294683E0,-3.826163861E0,-1.930564667E0,5.872750737E0
1.461162371E1,-3.810488353E0,-3.786674691E0,-1.771289144E0,5.656517651E0
1.462165071E1,-3.583499442E0,-3.752117938E0,-1.648620991E0,5.444061760E0
1.463167771E1,-3.359228316E0,-3.776432708E0,-1.566721381E0,5.291547482E0
1.464170471E1,-3.062775067E0,-3.851232921E0,-1.437656228E0,5.126347780E0
1.465173171E1,-2.708496948E0,-3.937103376E0,-1.230145415E0,4.934571558E0
1.466175971E1,-2.400436392E0,-4.004992181E0,-9.648285896E-1,4.767908499E0
1.467178671E1,-2.012807509E0,-4.009142243E0,-6.961922997E-1,4.539746613E0
1.468181371E1,-1.605816157E0,-4.040277789E0,-4.468217084E-1,4.370599476E0
1.469184071E1,-1.144855589E0,-4.111284329E0,-3.009886417E-1,4.278311269E0
1.470186771E1,-6.363232434E-1,-4.194997162E0,-2.229876620E-1,4.248838895E0
1.471189471E1,-1.908718300E-1,-4.242520992E0,-2.443902254E-1,4.253838620E0
1.472192171E1,2.815925503E-1,-4.267700272E0,-3.030636723E-1,4.287704230E0
1.473194971E1,6.088173562E-1,-4.151724257E0,-2.783357973E-1,4.205347037E0
1.474197671E1,6.870291281E-1,-3.945353213E0,-2.403505303E-1,4.011930879E0
1.475200371E1,8.004493243E-1,-3.604818682E0,-1.809415036E-1,3.697049727E0
1.476203071E1,9.266000783E-1,-3.003759704E0,-1.293832411E-1,3.146092829E0
1.477205771E1,1.010625152E0,-2.285894554E0,-3.302826074E-1,2.521064003E0
1.478208471E1,1.526642518E0,-1.836624908E0,-7.722173591E-1,2.510009578E0
1.479211271E1,2.394688579E0,-1.788612251E0,-1.246332262E0,3.238365526E0
1.480213971E1,3.006596189E0,-1.852362835E0,-1.543276677E0,3.853903426E0
1.481216671E1,2.997570426E0,-1.569502024E0,-1.581037411E0,3.734761620E0
1.482219371E1,2.793662814E0,-9.520380977E-1,-1.357107324E0,3.248487147E0
1.483222071E1,2.766662126E0,-2.910173848E-1,-9.177563109E-1,2.929400465E0
1.484224771E1,3.008527524E0,2.783970469E-1,-4.637165071E-1,3.056759031E0
1.485227471E1,3.422249022E0,6.739459831E-1,-9.223397970E-2,3.489197424E0
1.486230271E1,3.948276236E0,8.823515663E-1,3.524116874E-1,4.060987998E0
1.487232971E1,4.406757585E0,9.418408459E-1,1.087854445E0,4.635731214E0
1.488235671E1,4.468833380E0,1.014021507E0,1.974391302E0,4.989682596E0
1.489238371E1,4.313663480E0,1.138960426E0,2.775440551E0,5.254330949E0
1.490241071E1,4.105211411E0,1.150693156E0,3.185389425E0,5.321988469E0
1.491243771E1,3.803001578E0,1.151146316E0,3.145024926E0,5.067458992E0
1.492246471E1,3.491359017E0,1.306032626E0,2.849965653E0,4.692292961E0
1.493249271E1,3.292586430E0,1.539887631E0,2.404314265E0,4.358108122E0
1.494251971E1,3.080371093E0,1.845835881E0,2.096653658E0,4.158335332E0
1.495254671E1,2.823309951E0,2.266052466E0,2.061693156E0,4.166131482E0
1.496257371E1,2.415539165E0,2.760854672E0,2.151253204E0,4.252650741E0
1.497260071E1,1.849247439E0,3.232655101E0,2.300461283E0,4.377430434E0
1.498262771E1,1.229075959E0,3.642695191E0,2.403116755E0,4.533743057E0
1.499265471E1,5.245858759E-1,3.903360849E0,2.367269230E0,4.595147426E0
1.500268271E1,-2.047010797E-1,4.016055113E0,2.238538685E0,4.602353382E0
1.501270971E1,-8.982065839E-1,4.081155966E0,2.108208926E0,4.680507874E0
1.502273671E1,-1.429404491E0,4.066175984E0,1.954021357E0,4.732354995E0
1.503276371E1,-1.838383897E0,4.000281080E0,1.793096627E0,4.753640666E0
1.504279071E1,-2.105191178E0,3.865314479E0,1.664809300E0,4.705749241E0
1.505281771E1,-2.191160451E0,3.681234482E0,1.512791049E0,4.543259644E0
1.506284571E1,-2.130568678E0,3.467393327E0,1.332795625E0,4.282345567E0
1.507287271E1,-2.056636484E0,3.232822623E0,1.242674829E0,4.028043752E0
1.508289971E1,-1.918641610E0,2.927308237E0,1.257720299E0,3.719163816E0
1.509292671E1,-1.740119099E0,2.623369382E0,1.369344231E0,3.432955726E0
1.510295371E1,-1.618206992E0,2.350554087E0,1.523566883E0,3.234958181E0
1.511298071E1,-1.565880843E0,2.117142887E0,1.668424634E0,3.117357467E0
1.512300771E1,-1.493456061E0,1.936613612E0,1.784552091E0,3.027459240E0
1.513303571E1,-1.490431296E0,1.828909946E0,1.875538859E0,3.013958037E0
1.514306271E1,-1.411143637E0,1.712131694E0,1.863032250E0,2.897172840E0
1.515308971E1,-1.225391044E0,1.594310591E0,1.737287877E0,2.657363099E0
1.516311671E1,-9.587100631E-1,1.524705628E0,1.452160685E0,2.313573619E0
1.517314371E1,-6.644290549E-1,1.476413766E0,1.135956565E0,1.977791924E0
1.518317071E1,-3.383204824E-1,1.429340757E0,8.490275533E-1,1.696562269E0
1.519319771E1,7.213417590E-2,1.407672145E0,5.782668239E-1,1.523527724E0
1.520322571E1,4.826104689E-1,1.396475312E0,3.274832529E-1,1.513374191E0
1.521325317E1,7.464532113E-1,1.394420600E0,1.054288065E-1,1.585155021E0
1.522328017E1,9.528798044E-1,1.385861738E0,-2.066862094E-1,1.694494576E0
1.523330717E1,1.338133548E0,1.202634850E0,-5.693987904E-1,1.887100145E0
1.524333417E1,1.914955525E0,8.799059683E-1,-6.996206684E-1,2.220531075E0
1.525336117E1,2.433325226E0,5.010970259E-1,-6.673902310E-1,2.572465666E0
1.526338817E1,2.742213748E0,1.545047799E-1,-6.853182328E-1,2.830771811E0
1.527341617E1,2.946914828E0,-1.411567560E-1,-6.894561611E-1,3.029782505E0
1.528344317E1,2.974990819E0,-1.768002132E-1,-6.615456466E-1,3.052780917E0
1.529347017E1,2.897087195E0,1.883803314E-1,-6.549232364E-1,2.976159574E0
1.530349717E1,2.827697117E0,7.706580529E-1,-8.035085875E-1,3.038981881E0
1.531352417E1,2.932880926E0,1.022151476E0,-1.013160505E0,3.266967764E0
1.532355117E1,3.252766306E0,8.360655919E-1,-1.112429123E0,3.537936245E0
1.533357817E1,3.511265863E0,6.063963166E-1,-1.200932141E0,3.760178515E0
1.534360617E1,3.364945139E0,4.971548331E-1,-1.287142904E0,3.636860675E0
1.535363317E1,3.212358538E0,3.289427179E-1,-1.351727155E0,3.500659508E0
1.536366017E1,2.942051114E0,4.742852032E-2,-1.390004198E0,3.254231997E0
1.537368717E1,2.412596846E0,-5.081318110E-2,-1.451667472E0,2.816122152E0
1.538371417E1,2.099268533E0,-3.959725669E-1,-1.609584687E0,2.674787003E0
1.539374117E1,2.006598351E0,-7.181292987E-1,-1.498586554E0,2.605361451E0
1.540376817E1,2.137135686E0,-1.040890925E0,-1.045083086E0,2.596729003E0
1.541379617E1,2.404383847E0,-1.277178664E0,-5.691820049E-1,2.781405252E0
1.542382317E1,2.652083597E0,-1.386868921E0,-2.817521793E-1,3.006050082E0
1.543385017E1,3.035166854E0,-1.520110886E0,-7.332496136E-2,3.395342617E0
1.544387717E1,3.329968849E0,-1.564466402E0,-7.155515537E-2,3.679859752E0
1.545390417E1,3.484604899E0,-1.548176936E0,2.627974065E-1,3.822091784E0
1.546393117E1,3.446400946E0,-1.405714205E0,5.299289154E-1,3.759592606E0
1.547395817E1,3.104981439E0,-1.289921208E0,8.896398282E-1,3.477968586E0
1.548398617E1,2.658496238E0,-1.218570267E0,1.215280623E0,3.166926386E0
1.549401317E1,1.930838901E0,-1.071325390E0,1.466364888E0,2.650679712E0
1.550404017E1,1.179405617E0,-9.423606634E-1,1.601297575E0,2.200726051E0
1.551406717E1,4.669118643E-1,-8.908121949E-1,1.616175084E0,1.903569005E0
1.552409417E1,-2.710880274E-1,-9.024560478E-1,1.555493411E0,1.818646582E0
1.553412117E1,-1.004683796E0,-9.910228001E-1,1.400230247E0,1.988004141E0
1.554414817E1,-1.631943271E0,-1.148883443E0,1.116711186E0,2.286966523E0
1.555417617E1,-2.165282428E0,-1.308860047E0,7.708286454E-1,2.644946014E0
1.556420317E1,-2.586094260E0,-1.498451483E0,4.883680759E-1,3.028488690E0
1.557423017E1,-2.933321806E0,-1.741457234E0,1.881464428E-1,3.416496626E0
1.558425717E1,-3.220240000E0,-1.976301442E0,-9.464083984E-2,3.779506573E0
1.559428417E1,-3.434463855E0,-2.230114455E0,-3.227622110E-1,4.107691310E0
1.560431117E1,-3.646881505E0,-2.439972340E0,-4.505583715E-1,4.410919698E0
1.561433817E1,-3.784434915E0,-2.634208658E0,-6.175707842E-1,4.652138922E0
1.562436617E1,-3.820397045E0,-2.855932152E0,-7.900870349E-1,4.834875341E0
1.563439317E1,-3.857958974E0,-3.047417940E0,-9.597356647E-1,5.009161216E0
1.564442017E1,-3.887417831E0,-3.155617157E0,-1.045366530E0,5.114951438E0
1.565444717E1,-3.835978121E0,-3.215186251E0,-1.095449686E0,5.123686250E0
1.566447417E1,-3.739900181E0,-3.241814179E0,-1.111555111E0,5.072648943E0
1.567450117E1,-3.631748911E0,-3.232155456E0,-1.042810566E0,4.972311628E0
1.568452817E1,-3.565740278E0,-3.259614273E0,-9.544212766E-1,4.924480573E0
1.569455517E1,-3.502751148E0,-3.356341253E0,-8.990345496E-1,4.933817521E0
1.570458317E1,-3.377083958E0,-3.486851691E0,-8.726115668E-1,4.931965301E0
1.571461017E1,-3.143709303E0,-3.736945583E0,-8.309350987E-1,4.953597037E0
1.572463717E1,-2.914984353E0,-4.001970925E0,-7.081217891E-1,5.001433947E0
1.573466417E1,-2.664041737E0,-4.257631366E0,-5.453354515E-1,5.051923790E0
1.574469117E1,-2.445592684E0,-4.443676320E0,-4.293342943E-1,5.090335033E0
1.575471817E1,-2.148728961E0,-4.454900927E0,-3.898650040E-1,4.961368071E0
1.576474517E1,-1.656440765E0,-4.317088779E0,-4.633165576E-1,4.647118867E0
1.577477317E1,-1.139324707E0,-4.047644988E0,-6.151645088E-1,4.249696238E0
1.578480017E1,-5.942016560E-1,-3.875578973E0,-8.567739446E-1,4.013383807E0
1.579482717E1,-1.213630539E-1,-3.730270987E0,-1.016358932E0,3.868156680E0
1.580485417E1,1.083769727E-1,-3.572328921E0,-1.078033754E0,3.733019724E0
1.581488117E1,2.259358281E-1,-3.463792904E0,-1.013301423E0,3.616032087E0
1.582490817E1,3.390250719E-1,-3.370966309E0,-8.507679771E-1,3.493158743E0
1.583493517E1,3.136200893E-1,-3.246256016E0,-6.077794755E-1,3.317518889E0
1.584496317E1,2.124427933E-1,-3.077694823E0,-3.593382990E-1,3.105875299E0
1.585499017E1,3.438279748E-1,-2.946964529E0,-3.144650120E-1,2.983572666E0
1.586501717E1,8.207070029E-1,-3.071557000E0,-5.327265157E-1,3.223634584E0
1.587504417E1,1.318234888E0,-3.405468974E0,-8.729945594E-1,3.754608056E0
1.588507117E1,1.707159514E0,-3.660060545E0,-1.102831650E0,4.186487125E0
1.589509817E1,2.067107093E0,-3.733446025E0,-1.246126879E0,4.445715145E0
1.590512517E1,2.388687581E0,-3.595680946E0,-1.343276174E0,4.520966789E0
1.591515217E1,2.560392238E0,-3.233513764E0,-1.414516165E0,4.360283896E0
1.592518017E1,2.478373345E0,-2.563639490E0,-1.257744711E0,3.781071756E0
1.593520717E1,2.109701135E0,-1.613509923E0,-8.024683678E-1,2.774564584E0
1.594523417E1,1.703899691E0,-7.104823101E-1,-1.647465435E-1,1.853429441E0
1.595526117E1,1.650015260E0,-1.182266074E-1,3.977656156E-1,1.701395126E0
1.596528817E1,1.876990138E0,6.630304009E-2,9.012008699E-1,2.083182921E0
1.597531517E1,2.170683501E0,-1.644821763E-3,1.189799700E0,2.475377324E0
1.598534217E1,2.357520753E0,-2.520214266E-1,1.286796749E0,2.697640593E0
1.599537017E1,2.392063179E0,-4.979857224E-1,1.034142580E0,2.653188065E0
1.600539717E1,2.285139239E0,-6.684686038E-1,5.836871197E-1,2.451408222E0
1.601542417E1,2.093938211E0,-5.546326706E-1,2.759914659E-1,2.183658838E0
1.602545117E1,1.838490901E0,-8.005890727E-2,2.005530284E-1,1.851129314E0
1.603547817E1,1.487312976E0,7.367301688E-1,4.463741040E-1,1.718755675E0
1.604550517E1,1.121904098E0,1.502452295E0,7.105782044E-1,2.005231430E0
1.605553217E1,7.486190200E-1,2.332314868E0,1.049382836E0,2.664831592E0
1.606555917E1,3.726395452E-1,2.971585108E0,1.249454091E0,3.245044500E0
1.607558717E1,-1.645997053E-1,3.482748700E0,1.411459971E0,3.761495822E0
1.608561417E1,-5.925381231E-1,3.846628239E0,1.495561059E0,4.169454775E0
1.609564117E1,-1.088697175E0,3.988869069E0,1.368066030E0,4.355220161E0
1.610566817E1,-1.610975740E0,4.039985428E0,1.195298349E0,4.510594555E0
1.611569517E1,-2.031676474E0,3.841444098E0,9.193723351E-1,4.441806788E0
1.612572217E1,-2.231789829E0,3.488950549E0,7.189099020E-1,4.203628578E0
1.613574917E1,-2.278465812E0,3.105643052E0,6.958777195E-1,3.914162876E0
1.614577717E1,-2.223863343E0,2.732086078E0,8.169086516E-1,3.616241454E0
1.615580417E1,-2.058040985E0,2.313415205E0,9.842694122E-1,3.249031991E0
1.616583117E1,-1.813877631E0,1.923193667E0,1.166332996E0,2.889491063E0
1.617585817E1,-1.634085690E0,1.596472891E0,1.327754155E0,2.642327162E0
1.618588517E1,-1.423385367E0,1.388269621E0,1.503379955E0,2.492683240E0
1.619591217E1,-1.109834275E0,1.288774569E0,1.649993041E0,2.369630571E0
1.620593917E1,-8.740973443E-1,1.317656599E0,1.814013287E0,2.406430818E0
1.621596746E1,-6.783185309E-1,1.412383539E0,2.016024063E0,2.553291270E0
1.622599446E1,-4.089507544E-1,1.506926876E0,2.173731655E0,2.676411522E0
1.623602146E1,-1.415184063E-1,1.601715212E0,2.289466764E0,2.797709267E0
1.624604846E1,1.123823154E-1,1.774648369E0,2.357605537E0,2.953017184E0
1.625607546E1,3.481402963E-1,1.992095502E0,2.223015497E0,3.005236106E0
1.626610246E1,5.281018066E-1,2.282214462E0,1.927689006E0,3.033707183E0
1.627612946E1,7.769674909E-1,2.625224411E0,1.506686556E0,3.124993771E0
1.628615646E1,1.023418275E0,2.962185416E0,1.049782786E0,3.305143159E0
1.629618446E1,1.359182940E0,3.279413530E0,5.795596433E-1,3.596918229E0
1.630621146E1,1.870544168E0,3.478957073E0,2.380341193E-2,3.950018279E0
1.631623846E1,2.366375776E0,3.548412055E0,-5.299529986E-1,4.297884666E0
1.632626546E1,2.811339532E0,3.533202862E0,-1.117317542E0,4.651403113E0
1.633629246E1,3.214381675E0,3.397045183E0,-1.689419062E0,4.972554906E0
1.634631946E1,3.418192808E0,3.175522833E0,-2.053564941E0,5.097559838E0
1.635634646E1,3.579381832E0,2.921827349E0,-2.108738683E0,5.078959361E0
1.636637346E1,3.925407191E0,2.618363873E0,-1.836270713E0,5.063254005E0
1.637640146E1,4.621856768E0,2.164844472E0,-1.184510821E0,5.239387126E0
1.638642846E1,5.356464105E0,1.665129728E0,-5.031862360E-1,5.631834613E0
1.639645546E1,5.955433581E0,1.185543731E0,-7.818830989E-2,6.072793137E0
1.640648246E1,6.362928963E0,8.337234896E-1,2.057962267E-1,6.420616165E0
1.641650946E1,6.499987113E0,5.954035512E-1,4.380984666E-1,6.541885671E0
1.642653646E1,6.453968942E0,4.120588419E-1,5.047315820E-1,6.486775899E0
1.643656346E1,6.098352980E0,4.241286644E-1,5.337285823E-1,6.136339332E0
1.644659146E1,5.446387265E0,5.776546204E-1,5.544412474E-1,5.504927266E0
1.645661846E1,4.768061718E0,7.144715729E-1,4.302516494E-1,4.840454385E0
1.646664546E1,4.279735596E0,7.798396432E-1,2.994294816E-1,4.360498211E0
1.647667246E1,4.126663091E0,6.400160524E-1,1.893556470E-1,4.180289987E0
1.648669946E1,4.423222759E0,1.757751963E-1,8.270352982E-2,4.427486462E0
1.649672646E1,4.789154963E0,-4.126625669E-1,2.592655420E-3,4.806901536E0
1.650675346E1,4.944076942E0,-9.853452998E-1,-1.397314972E-1,5.043245687E0
1.651678046E1,4.816805277E0,-1.404403259E0,-3.796498451E-1,5.031709013E0
1.652680846E1,4.392989146E0,-1.729517805E0,-5.175393232E-1,4.749466541E0
1.653683546E1,3.669393870E0,-1.838281278E0,-6.169941757E-1,4.150230264E0
1.654686246E1,2.874408184E0,-1.818290817E0,-5.753929905E-1,3.449562436E0
1.655688946E1,2.122241074E0,-1.812302684E0,-3.543248963E-1,2.813164468E0
1.656691646E1,1.432704660E0,-1.914898222E0,-1.711298027E-1,2.397657868E0
1.657694346E1,8.171746999E-1,-2.185367029E0,-3.101121984E-2,2.333359218E0
1.658697046E1,1.615544754E-1,-2.495002241E0,1.033214700E-1,2.502361157E0
1.659699846E1,-5.487676209E-1,-2.749266075E0,7.900173068E-2,2.804612473E0
1.660702546E1,-1.271301042E0,-3.091476125E0,5.138094574E-3,3.342672190E0
1.661705246E1,-1.903704312E0,-3.373415415E0,-1.329406140E-1,3.875783131E0
1.662707946E1,-2.410842097E0,-3.541603557E0,-2.376659274E-1,4.290874091E0
1.663710646E1,-2.899310306E0,-3.753176284E0,-2.443505374E-1,4.748898784E0
1.664713346E1,-3.413775237E0,-3.789781024E0,-5.007152758E-1,5.125135838E0
1.665716046E1,-3.896344775E0,-3.765965315E0,-6.943616827E-1,5.463161676E0
1.666718746E1,-4.115004913E0,-3.846593156E0,-9.246816069E-1,5.708290498E0
1.667721546E1,-4.439099704E0,-3.795380025E0,-1.228194784E0,5.968163716E0
1.668724246E1,-4.609300457E0,-3.707458367E0,-1.529626498E0,6.109881789E0
1.669726946E1,-4.802414110E0,-3.699823073E0,-1.663655060E0,6.286463251E0
1.670729646E1,-5.049357229E0,-3.751844581E0,-1.784977768E0,6.538997769E0
1.671732346E1,-5.228715892E0,-3.902819982E0,-1.918818342E0,6.800980629E0
1.672735046E1,-5.414399487E0,-4.058253299E0,-2.019006874E0,7.061269745E0
1.673737746E1,-5.377777791E0,-4.370048180E0,-2.018269393E0,7.217425193E0
1.674740546E1,-5.517191784E0,-4.578095329E0,-2.006666471E0,7.444801700E0
1.675743246E1,-5.496051176E0,-4.584925169E0,-1.996589818E0,7.430645210E0
1.676745946E1,-5.275125827E0,-4.665865252E0,-1.817930483E0,7.273384514E0
1.677748646E1,-5.064104492E0,-4.674157481E0,-1.657106617E0,7.087940801E0
1.678751346E1,-4.705452071E0,-4.581448707E0,-1.459588403E0,6.727655592E0
1.679754046E1,-4.290715497E0,-4.435701302E0,-1.321016409E0,6.311162323E0
1.680756746E1,-3.974193435E0,-4.272059371E0,-1.323498990E0,5.983005457E0
1.681759546E1,-3.723734384E0,-4.140052338E0,-1.413083158E0,5.744826815E0
1.682762246E1,-3.242797388E0,-4.209297697E0,-1.485636141E0,5.517339644E0
1.683764946E1,-2.788583338E0,-4.192117116E0,-1.593971452E0,5.281172969E0
1.684767646E1,-2.206907002E0,-4.264367943E0,-1.633203346E0,5.071747790E0
1.685770346E1,-1.583838227E0,-4.444470956E0,-1.600294046E0,4.982249155E0
1.686773046E1,-8.399741632E-1,-4.760555939E0,-1.549303256E0,5.076296881E0
1.687775746E1,-1.853988361E-1,-5.028758073E0,-1.354920319E0,5.211390367E0
1.688778446E1,3.786773801E-1,-5.137476524E0,-1.043978328E0,5.256134734E0
1.689781246E1,8.587530810E-1,-5.072111084E0,-6.615990756E-1,5.186663768E0
1.690783946E1,1.207890912E0,-4.771367441E0,-1.952035204E-1,4.925753965E0
1.691786646E1,1.436245149E0,-4.287012455E0,2.518454254E-1,4.528211793E0
1.692789346E1,1.988952039E0,-3.876889334E0,3.925802317E-1,4.374965184E0
1.693792046E1,2.979138249E0,-3.746327148E0,2.344487894E-1,4.792201795E0
1.694794746E1,3.803912575E0,-3.836012619E0,-6.696231365E-3,5.402294747E0
1.695797446E1,4.116248031E0,-3.840681036E0,-1.221091586E-1,5.631095748E0
1.696800246E1,4.216880951E0,-3.653883254E0,-7.599861899E-2,5.580208202E0
1.697802946E1,4.453113141E0,-3.367458564E0,-3.425825179E-2,5.583114494E0
1.698805646E1,4.643803707E0,-2.919487878E0,2.420197642E-1,5.490618900E0
1.699808346E1,4.369205596E0,-2.221744604E0,9.121130168E-1,4.985785473E0
1.700811046E1,3.726514735E0,-1.110435077E0,1.768159422E0,4.271576509E0
1.701813746E1,3.233000379E0,1.718666250E-1,2.468493304E0,4.071276063E0
1.702816446E1,2.927212050E0,1.412426516E0,2.865557839E0,4.333005974E0
1.703819146E1,3.030325359E0,2.375818152E0,3.018001767E0,4.892414367E0
1.704821946E1,3.386406174E0,2.907446415E0,2.820839503E0,5.279974141E0
1.705824646E1,3.961655835E0,3.031966380E0,2.487260528E0,5.574405979E0
1.706827346E1,4.449397820E0,2.825954355E0,2.023979784E0,5.646206970E0
1.707830046E1,4.568226106E0,2.743911780E0,1.695363926E0,5.592137378E0
1.708832746E1,4.556291939E0,3.135701541E0,1.567958944E0,5.748992576E0
1.709835446E1,4.497611037E0,3.436492839E0,1.628208654E0,5.889741208E0
1.710838146E1,4.309326600E0,3.783872997E0,1.808445714E0,6.013191042E0
1.711840946E1,3.946913835E0,4.143917640E0,2.174103538E0,6.121838647E0
1.712843646E1,3.458680099E0,4.421058120E0,2.499108156E0,6.144409207E0
1.713846346E1,2.874032793E0,4.552874241E0,2.634914417E0,5.994289144E0
1.714849046E1,2.147497537E0,4.542014208E0,2.587210493E0,5.651132353E0
1.715851746E1,1.360579839E0,4.367206433E0,2.252574341E0,5.098799927E0
1.716854446E1,6.049371439E-1,4.109507360E0,1.730377053E0,4.499800489E0
1.717857146E1,1.052873039E-1,3.921500959E0,1.410394024E0,4.168748791E0
1.718859946E1,-3.470790267E-1,3.778203245E0,1.210191207E0,3.982442261E0
1.719862646E1,-7.435208327E-1,3.655009720E0,1.009071547E0,3.863954537E0
1.720865346E1,-1.020963029E0,3.658687618E0,8.201491785E-1,3.886001193E0
1.721867958E1,-1.264965000E0,3.723264853E0,6.594103897E-1,3.987186938E0
1.722870658E1,-1.346355318E0,3.794506744E0,4.654091299E-1,4.053092613E0
1.723873358E1,-1.308981670E0,3.817602953E0,2.732684541E-1,4.045021751E0
1.724876058E1,-1.194576218E0,3.726229391E0,1.533853304E-1,3.916034330E0
1.725878758E1,-9.937343001E-1,3.429504831E0,8.119795402E-2,3.571498895E0
1.726881558E1,-7.971672821E-1,3.070855919E0,1.393297935E-1,3.175695915E0
1.727884258E1,-5.744012296E-1,2.787236432E0,3.756356585E-1,2.870492265E0
1.728886958E1,-4.661406165E-1,2.538346481E0,5.772733819E-1,2.644566976E0
1.729889658E1,-4.803242075E-1,2.289163878E0,7.757173562E-1,2.464288948E0
1.730892358E1,-5.228685486E-1,2.043795121E0,9.505186987E-1,2.313865988E0
1.731895058E1,-6.066562253E-1,1.834372999E0,1.051236988E0,2.199557974E0
1.732897758E1,-7.298313314E-1,1.684094879E0,1.173929114E0,2.178747094E0
1.733900558E1,-8.403700197E-1,1.557162060E0,1.251919277E0,2.167550998E0
1.734903258E1,-9.872883296E-1,1.490425449E0,1.246089603E0,2.179184610E0
1.735905958E1,-1.015193582E0,1.424722918E0,1.204721721E0,2.124101652E0
1.736908658E1,-9.365871227E-1,1.357391060E0,1.105994409E0,1.985681133E0
1.737911358E1,-9.335611886E-1,1.341833374E0,8.297204858E-1,1.833163762E0
1.738914058E1,-9.924783182E-1,1.355708524E0,5.104128098E-1,1.755984069E0
1.739916758E1,-1.080669533E0,1.430221347E0,2.264930495E-1,1.806842230E0
1.740919558E1,-1.048464239E0,1.573383991E0,1.653300226E-2,1.890790253E0
1.741922258E1,-8.275242716E-1,1.705346000E0,-1.504535731E-1,1.901483020E0
1.742924958E1,-4.931863278E-1,1.675580749E0,-2.240127154E-1,1.760961469E0
1.743927658E1,-1.121069115E-1,1.570972599E0,-1.830628369E-1,1.585570833E0
1.744930358E1,3.204560691E-1,1.318957604E0,-1.770934510E-1,1.368832840E0
1.745933058E1,8.386725730E-1,9.920000160E-1,-1.543401808E-1,1.308150071E0
1.746935758E1,1.501411783E0,6.642574391E-1,-2.010448158E-2,1.641913358E0
1.747938458E1,2.191456904E0,4.595584059E-1,2.980448610E-1,2.258873177E0
1.748941258E1,2.702418183E0,4.477353358E-1,6.048541135E-1,2.805241427E0
1.749943958E1,3.244336376E0,3.534022057E-1,6.248609465E-1,3.322809480E0
1.750946658E1,3.718735600E0,4.902802616E-2,4.063475740E-1,3.741191863E0
1.751949358E1,4.319013682E0,-5.220820981E-1,3.507273238E-2,4.350595247E0
1.752952058E1,4.849026359E0,-1.014916131E0,-2.006373014E-1,4.958161626E0
1.753954758E1,5.127300029E0,-1.134926724E0,-2.194389137E-1,5.255988746E0
1.754957458E1,5.388903288E0,-8.495796767E-1,-2.594187391E-1,5.461626347E0
1.755960158E1,5.509885104E0,-2.439809203E-1,-2.148261914E-1,5.519466536E0
1.756962958E1,5.331608176E0,6.192072737E-1,-1.958805549E-1,5.371017835E0
1.757965658E1,5.108801193E0,1.507934936E0,-2.929712319E-1,5.334749249E0
1.758968358E1,5.179960054E0,1.894921502E0,-4.684970444E-1,5.535540004E0
1.759971058E1,5.383394626E0,1.911867610E0,-7.023072448E-1,5.755815401E0
1.760973758E1,5.851802208E0,1.289326546E0,-7.830316383E-1,6.043102728E0
1.761976458E1,6.226949040E0,5.095146775E-1,-6.630532781E-1,6.282844833E0
1.762979158E1,6.304043409E0,-4.511360765E-2,-3.108666354E-1,6.311864748E0
1.763981958E1,6.327579036E0,-5.082633734E-1,-9.072539806E-3,6.347965850E0
1.764984658E1,6.034768018E0,-9.528622627E-1,2.513051426E-1,6.114697523E0
1.765987358E1,5.404849815E0,-1.298470422E0,5.073635600E-1,5.581742088E0
1.766990058E1,4.678339702E0,-1.559448029E0,7.208359748E-1,4.983808285E0
1.767992758E1,4.008332988E0,-1.915793138E0,7.333712357E-1,4.502758051E0
1.768995458E1,3.193134062E0,-2.372542250E0,7.530441928E-1,4.048720467E0
1.769998158E1,2.390905430E0,-2.782030363E0,6.600553375E-1,3.727169806E0
1.771000858E1,1.660258412E0,-3.186334335E0,5.744018143E-1,3.638560421E0
1.772003658E1,8.509628356E-1,-3.516992626E0,4.682649831E-1,3.648650021E0
1.773006358E1,4.242154956E-2,-3.755190650E0,2.506772248E-1,3.763787385E0
1.774009058E1,-6.265367585E-1,-3.989108805E0,-2.345552087E-2,4.038079683E0
1.775011758E1,-1.197634896E0,-4.162161245E0,-3.038757775E-1,4.341688158E0
1.776014458E1,-1.709214810E0,-4.446053213E0,-5.597037414E-1,4.796047614E0
1.777017158E1,-2.296572300E0,-4.509571809E0,-7.624539708E-1,5.117794279E0
1.778019858E1,-2.765488005E0,-4.517376965E0,-9.714979968E-1,5.385018747E0
1.779022658E1,-3.107143155E0,-4.555425089E0,-1.081899349E0,5.619318689E0
1.780025358E1,-3.444664907E0,-4.599545547E0,-1.016454095E0,5.835641738E0
1.781028058E1,-3.824503545E0,-4.427365219E0,-1.095883403E0,5.952255924E0
1.782030758E1,-4.039716164E0,-4.520707539E0,-1.128531917E0,6.166821517E0
1.783033458E1,-4.248178173E0,-4.582482787E0,-1.159419687E0,6.355345805E0
1.784036158E1,-4.470175316E0,-4.546837576E0,-1.204051484E0,6.488908944E0
1.785038858E1,-4.523010172E0,-4.735149495E0,-1.220509204E0,6.660998760E0
1.786041558E1,-4.808037962E0,-4.857838697E0,-1.389852170E0,6.974777051E0
1.787044358E1,-4.989071851E0,-4.848666463E0,-1.598255707E0,7.138264895E0
1.788047058E1,-5.126925223E0,-4.890794190E0,-1.725259570E0,7.292581890E0
1.789049758E1,-5.103687803E0,-4.915421492E0,-1.910754154E0,7.338935827E0
1.790052458E1,-5.112070956E0,-5.109735578E0,-2.024405608E0,7.506056568E0
1.791055158E1,-5.134961636E0,-4.915082939E0,-2.043397657E0,7.396035781E0
1.792057858E1,-4.813867636E0,-4.809916672E0,-1.977084969E0,7.086429636E0
1.793060558E1,-4.337406099E0,-4.594247093E0,-1.932470275E0,6.607165760E0
1.794063258E1,-3.885209337E0,-4.328875596E0,-1.731578656E0,6.068968624E0
1.795066058E1,-3.489673850E0,-4.198293237E0,-1.557721639E0,5.677145972E0
1.796068758E1,-3.216430539E0,-4.213897702E0,-1.535959325E0,5.519196527E0
1.797071458E1,-2.901749765E0,-4.358237389E0,-1.540737962E0,5.457862064E0
1.798074158E1,-2.672917811E0,-4.502820906E0,-1.516460177E0,5.451562822E0
1.799076858E1,-2.396510571E0,-4.672755611E0,-1.419694605E0,5.439985357E0
1.800079558E1,-2.076224656E0,-4.816957304E0,-1.251285585E0,5.392541341E0
1.801082258E1,-1.671817773E0,-4.835670733E0,-1.005027612E0,5.214284861E0
1.802084958E1,-1.146682259E0,-4.804989223E0,-7.652122486E-1,4.998835007E0
1.803087758E1,-6.271898925E-1,-4.651028527E0,-4.215229990E-1,4.712018162E0
1.804090458E1,-2.059143770E-1,-4.422574888E0,-4.133294418E-2,4.427558896E0
1.805093158E1,2.540176660E-1,-4.068700520E0,3.107081028E-1,4.088445721E0
1.806095858E1,7.715862983E-1,-3.776881481E0,4.606302005E-1,3.882313656E0
1.807098558E1,1.223572560E0,-3.777311836E0,3.356331021E-1,3.984703765E0
1.808101258E1,1.418808752E0,-3.990786663E0,1.989018112E-1,4.240160185E0
1.809103958E1,1.396098166E0,-4.236665005E0,5.763015747E-2,4.461136816E0
1.810106658E1,1.752529230E0,-4.523015727E0,1.506410860E-2,4.850696537E0
1.811109458E1,2.246335947E0,-4.765023212E0,1.866665125E-2,5.267999605E0
1.812112158E1,2.490891649E0,-4.669546367E0,2.569933140E-1,5.298608311E0
1.813114858E1,2.594985536E0,-4.191230385E0,5.883100015E-1,4.964521199E0
1.814117558E1,2.815340781E0,-3.434671431E0,9.337324389E-1,4.538167893E0
1.815120258E1,3.017694204E0,-2.544576105E0,1.313020341E0,4.159972149E0
1.816122958E1,3.068632808E0,-1.786603733E0,1.521157830E0,3.862949825E0
1.817125658E1,3.360653867E0,-1.220527476E0,1.731655839E0,3.972696022E0
1.818128358E1,3.710020325E0,-7.811445956E-1,1.944123191E0,4.260757288E0
1.819131158E1,3.953444590E0,-4.667890728E-1,1.978313030E0,4.445372719E0
1.820133858E1,4.097327026E0,-7.801793665E-2,1.992166253E0,4.556632741E0
1.821136558E1,4.141984550E0,4.677035773E-1,1.937197748E0,4.596467967E0
1.822139258E1,4.130359116E0,1.000294876E0,1.788677301E0,4.610837533E0
1.823141958E1,4.004435819E0,1.564608489E0,1.469532763E0,4.543460409E0
1.824144658E1,3.615993004E0,2.296243102E0,1.237164413E0,4.458555099E0
1.825147358E1,3.071078113E0,3.108992044E0,1.163432193E0,4.522270091E0
1.826150058E1,2.468854662E0,3.888888698E0,1.154129857E0,4.748759246E0
1.827152858E1,1.915446106E0,4.459622846E0,1.042626379E0,4.964296474E0
1.828155558E1,1.344422813E0,4.774348352E0,9.325519592E-1,5.046932538E0
1.829158258E1,6.660294378E-1,5.083852293E0,8.608650953E-1,5.199061268E0
1.830160958E1,2.478517771E-1,5.099840920E0,8.419136846E-1,5.174806911E0
1.831163658E1,-1.574345273E-1,4.875238842E0,7.361919326E-1,4.933023207E0
1.832166358E1,-5.690510273E-1,4.698567267E0,6.322506577E-1,4.774944432E0
1.833169058E1,-8.520346302E-1,4.421517127E0,6.072414951E-1,4.543623988E0
1.834171758E1,-1.004252856E0,4.062946275E0,5.817540668E-1,4.225457848E0
1.835174558E1,-1.100319686E0,3.692385122E0,6.712808222E-1,3.910885992E0
1.836177258E1,-1.086576975E0,3.331344991E0,9.186437720E-1,3.622487454E0
1.837179958E1,-1.064460467E0,3.019838085E0,1.144686604E0,3.400412559E0
1.838182658E1,-1.075747932E0,2.674667298E0,1.263114356E0,3.147465114E0
1.839185358E1,-9.634884077E-1,2.358131202E0,1.412357519E0,2.912704317E0
1.840188058E1,-8.641693568E-1,2.139827160E0,1.534378384E0,2.771275154E0
1.841190758E1,-7.288092381E-1,1.966230344E0,1.695905378E0,2.696909290E0
1.842193458E1,-6.403999221E-1,2.043707705E0,1.922373887E0,2.877911501E0
1.843196258E1,-5.667016160E-1,2.259213562E0,2.134071161E0,3.159027756E0
1.844198958E1,-4.382558298E-1,2.438849383E0,2.285723961E0,3.371140535E0
1.845201658E1,-2.202096498E-1,2.641132931E0,2.301212651E0,3.509936625E0
1.846204358E1,7.226983130E-2,2.906474900E0,2.174932673E0,3.630860973E0
1.847207058E1,3.438946331E-1,3.226180771E0,1.910189459E0,3.765013899E0
1.848209758E1,5.823312235E-1,3.545529962E0,1.578498550E0,3.924480862E0
1.849212458E1,8.206280655E-1,3.795351959E0,1.249569865E0,4.079160669E0
1.850215158E1,1.038645594E0,4.114027258E0,8.681881481E-1,4.331022467E0
1.851217858E1,1.246913475E0,4.404504068E0,5.775166261E-1,4.613889330E0
1.852220658E1,1.613841460E0,4.549512970E0,3.264348471E-1,4.838296418E0
1.853223358E1,2.175614458E0,4.564129255E0,1.485239553E-1,5.058323189E0
1.854226058E1,2.893753113E0,4.358837898E0,7.147227108E-2,5.232435684E0
1.855228758E1,3.587332292E0,3.976382340E0,-8.456864543E-3,5.355430982E0
1.856231458E1,4.224027418E0,3.533596380E0,4.854007602E-2,5.507364809E0
1.857234158E1,4.500368584E0,3.287894916E0,3.968388319E-1,5.587580105E0
1.858236858E1,4.805121955E0,3.154701483E0,7.824966180E-1,5.801175692E0
1.859239558E1,5.120335411E0,2.847452228E0,9.635667604E-1,5.937531458E0
1.860242258E1,5.354646206E0,2.562146988E0,1.105596871E0,6.038143557E0
1.861245058E1,5.608265676E0,2.010689940E0,1.232317071E0,6.083923347E0
1.862247758E1,5.820386873E0,1.376847963E0,1.308716206E0,6.122528217E0
1.863250458E1,5.863163348E0,8.050890899E-1,1.428959518E0,6.088249190E0
1.864253158E1,5.807743438E0,2.735675392E-1,1.531248370E0,6.012440820E0
1.865255858E1,5.546795068E0,2.104208261E-2,1.597383887E0,5.772262431E0
1.866258558E1,5.034901743E0,4.086706728E-2,1.609704555E0,5.286119033E0
1.867261258E1,4.568088112E0,1.760207793E-1,1.574483121E0,4.835019070E0
1.868263958E1,4.274385978E0,2.466861346E-1,1.462936957E0,4.524534681E0
1.869266758E1,4.032056311E0,1.940801972E-1,1.337882556E0,4.252655048E0
1.870269458E1,4.035411444E0,-8.623649061E-2,1.299971110E0,4.240507887E0
1.871272158E1,4.294562380E0,-6.981195420E-1,1.161976236E0,4.503423776E0
1.872274858E1,4.592292076E0,-1.394286406E0,9.666896852E-1,4.895678711E0
1.873277558E1,4.569399642E0,-2.007954028E0,7.793314471E-1,5.051598754E0
1.874280258E1,4.356078597E0,-2.557312510E0,4.820888241E-1,5.074216950E0
1.875282958E1,3.868326087E0,-2.943595071E0,1.468555985E-1,4.863153835E0
1.876285658E1,3.210729504E0,-3.158321494E0,-1.356197351E-1,4.505793085E0
1.877288358E1,2.534248168E0,-3.315458983E0,-2.837839405E-1,4.182728221E0
1.878291158E1,1.829230666E0,-3.363837676E0,-3.709742582E-1,3.846961221E0
1.879293858E1,1.116522321E0,-3.334923195E0,-3.296666032E-1,3.532281823E0
1.880296558E1,3.462557387E-1,-3.401896618E0,-2.394658466E-1,3.427847361E0
1.881299258E1,-3.779488170E-1,-3.435973606E0,-1.981615537E-1,3.462373165E0
1.882301958E1,-1.102159220E0,-3.375880601E0,-1.726181383E-1,3.555435529E0
1.883304658E1,-1.733480755E0,-3.430189833E0,-1.197088766E-1,3.845190247E0
1.884307358E1,-2.345633363E0,-3.293914332E0,-1.433425914E-1,4.046284049E0
1.885310058E1,-2.818180774E0,-3.206255799E0,-1.818207787E-1,4.272619562E0
1.886312758E1,-3.277591830E0,-3.263584240E0,-2.573803997E-1,4.632476116E0
1.887315558E1,-3.767681472E0,-3.096120861E0,-4.346649085E-1,4.895949514E0
1.888318258E1,-4.009506524E0,-3.119158598E0,-5.986670284E-1,5.115045957E0
1.889320958E1,-4.046091383E0,-3.142264748E0,-7.324327576E-1,5.175049852E0
1.890323658E1,-3.897066906E0,-3.149964361E0,-9.452164435E-1,5.099297998E0
1.891326358E1,-3.699797637E0,-3.205686280E0,-1.244569911E0,5.051126741E0
1.892329058E1,-3.651399064E0,-3.157169301E0,-1.570830365E0,5.076213269E0
1.893331758E1,-3.607221011E0,-3.034157917E0,-1.890209523E0,5.078488922E0
1.894334458E1,-3.594944782E0,-2.966543346E0,-2.280976460E0,5.189109849E0
1.895337158E1,-3.659392793E0,-2.941275481E0,-2.620454838E0,5.376712808E0
1.896339858E1,-3.794028441E0,-2.933732572E0,-2.755341917E0,5.531125355E0
1.897342658E1,-3.962232370E0,-3.032733243E0,-2.690595113E0,5.668867465E0
1.898345358E1,-4.004753323E0,-3.288025894E0,-2.394307925E0,5.708053424E0
1.899348058E1,-3.863461204E0,-3.706906682E0,-1.936176386E0,5.693528662E0
1.900350758E1,-3.706783891E0,-4.166507188E0,-1.572810963E0,5.794287125E0
1.901353458E1,-3.616632689E0,-4.685869746E0,-1.206325759E0,6.040912938E0
1.902356158E1,-3.524098163E0,-5.176826531E0,-8.705347820E-1,6.322707616E0
1.903358858E1,-3.632542378E0,-5.561009649E0,-5.948596139E-1,6.668886744E0
1.904361558E1,-3.610396049E0,-5.817341643E0,-3.271248186E-1,6.854446299E0
1.905364258E1,-3.451206772E0,-6.111760646E0,-2.525289649E-1,7.023404961E0
1.906367058E1,-3.179927541E0,-6.384695808E0,-2.500971810E-1,7.137144270E0
1.907369758E1,-2.714123724E0,-6.566258871E0,-3.584057412E-1,7.114118204E0
1.908372458E1,-2.154445199E0,-6.673973354E0,-3.745693456E-1,7.023094520E0
1.909375158E1,-1.741459866E0,-6.661379621E0,-2.634802882E-1,6.890289020E0
1.910377858E1,-1.459304228E0,-6.509706355E0,-4.150295198E-2,6.671399265E0
1.911380558E1,-1.253011537E0,-6.179289554E0,1.896029842E-1,6.307900332E0
1.912383258E1,-1.137662929E0,-5.635887923E0,4.161977935E-1,5.764610154E0
1.913385958E1,-8.264249951E-1,-5.061251636E0,4.433545288E-1,5.147408050E0
1.914388658E1,-1.011176544E-1,-4.690856836E0,1.570941462E-1,4.694575722E0
1.915391458E1,8.639705515E-1,-4.572713552E0,-3.175676177E-1,4.664440324E0
1.916394158E1,1.731556436E0,-4.519132591E0,-8.029630423E-1,4.905669854E0
1.917396858E1,2.660182575E0,-4.323734724E0,-1.189070552E0,5.213937291E0
1.918399558E1,3.879266812E0,-3.953051657E0,-1.360248302E0,5.703122289E0
1.919402258E1,4.537165697E0,-3.586176882E0,-1.299900944E0,5.927586326E0
1.920404958E1,4.408118232E0,-3.208539721E0,-1.007687511E0,5.544516896E0
1.921407658E1,4.107447386E0,-2.760050679E0,-4.798313238E-1,4.971844918E0
1.922410396E1,3.863396884E0,-2.110860930E0,2.397089811E-1,4.408971507E0
1.923413096E1,3.756781678E0,-1.279407476E0,1.121393051E0,4.124053157E0
1.924415796E1,3.871066092E0,-2.085517636E-1,1.995935369E0,4.360321608E0
1.925418596E1,4.116842108E0,7.165897268E-1,2.460993081E0,4.849574901E0
1.926421296E1,4.563838356E0,1.327309475E0,2.323886983E0,5.290635282E0
1.927423996E1,4.941497735E0,1.736733269E0,1.737625846E0,5.518513015E0
1.928426696E1,5.156553065E0,1.989861281E0,1.009735790E0,5.618643412E0
1.929429396E1,5.300103963E0,2.263473551E0,2.731579417E-1,5.769664617E0
1.930432096E1,5.243028122E0,2.670806381E0,-3.535998416E-1,5.894708089E0
1.931434796E1,4.874091033E0,3.191320256E0,-5.747345209E-1,5.854195773E0
1.932437496E1,4.229695124E0,3.797201433E0,-5.650573790E-1,5.712123021E0
1.933440196E1,3.525237785E0,4.247239695E0,-3.312342417E-1,5.529562604E0
1.934442896E1,2.600095417E0,4.576966524E0,-4.829450210E-2,5.264166705E0
1.935445696E1,1.707225003E0,4.749842378E0,2.098682642E-1,5.051699171E0
1.936448396E1,8.382141513E-1,4.726818967E0,3.993051875E-1,4.817142840E0
1.937451096E1,4.800797939E-2,4.601418411E0,4.803967130E-1,4.626676686E0
1.938453796E1,-5.415784693E-1,4.395884103E0,4.359941268E-1,4.450527515E0
1.939456496E1,-9.673393840E-1,4.151468734E0,3.442975062E-1,4.276561575E0
1.940459196E1,-1.294992791E0,3.895952134E0,2.759061331E-1,4.114799334E0
1.941461896E1,-1.561897720E0,3.593743471E0,2.443311685E-1,3.926094032E0
1.942464596E1,-1.757117540E0,3.296018745E0,3.230545717E-1,3.749075336E0
1.943467296E1,-1.935905514E0,3.006393290E0,5.340694749E-1,3.615433719E0
1.944469996E1,-2.044532747E0,2.714112614E0,8.034448528E-1,3.491710909E0
1.945472796E1,-2.038757452E0,2.403762580E0,1.167628155E0,3.361244115E0
1.946475496E1,-2.031965911E0,2.154416547E0,1.582971085E0,3.358004405E0
1.947478196E1,-1.978132351E0,1.943798670E0,1.973574446E0,3.403873817E0
1.948480896E1,-1.808438551E0,1.735182880E0,2.287759377E0,3.393398383E0
1.949483596E1,-1.692301154E0,1.555748203E0,2.560699217E0,3.441135881E0
1.950486296E1,-1.655777691E0,1.395480115E0,2.808059828E0,3.546006841E0
1.951488996E1,-1.677283165E0,1.261274822E0,3.001147753E0,3.662100603E0
1.952491696E1,-1.679665321E0,1.183837221E0,3.153446671E0,3.763903833E0
1.953494396E1,-1.610714369E0,1.179582787E0,3.252217838E0,3.816115459E0
1.954497096E1,-1.408873163E0,1.201335014E0,3.291076094E0,3.776150323E0
1.955499896E1,-1.070918716E0,1.303359572E0,3.172924916E0,3.593475419E0
1.956502596E1,-6.381569302E-1,1.452443690E0,2.818329878E0,3.234164535E0
1.957505296E1,-3.373843431E-4,1.606471045E0,2.359566693E0,2.854523483E0
1.958507996E1,6.224624187E-1,1.729325724E0,1.978723505E0,2.700624674E0
1.959510696E1,1.255549813E0,1.708093022E0,1.658781406E0,2.691754605E0
1.960513396E1,1.870200936E0,1.559069714E0,1.456350800E0,2.837130164E0
1.961516096E1,2.414848609E0,1.322710932E0,1.369947664E0,3.075356014E0
1.962518796E1,3.072984890E0,1.037704485E0,1.390840935E0,3.529094110E0
1.963521496E1,3.701965200E0,9.097036716E-1,1.529946195E0,4.107656567E0
1.964524196E1,4.238337893E0,1.079538389E0,1.612658569E0,4.661499640E0
1.965526996E1,4.451419787E0,1.416518982E0,1.595323913E0,4.936266052E0
1.966529696E1,4.513662229E0,1.822379775E0,1.449792563E0,5.078987422E0
1.967532396E1,4.650977656E0,2.111635394E0,1.165930123E0,5.239273828E0
1.968535096E1,4.765842115E0,2.287683948E0,8.448817313E-1,5.353557140E0
1.969537796E1,4.880221839E0,2.208595678E0,4.135314631E-1,5.372659336E0
1.970540496E1,4.982707742E0,1.989696389E0,-5.465684831E-2,5.365561996E0
1.971543196E1,4.936487256E0,1.673021422E0,-5.093836999E-1,5.237115510E0
1.972545896E1,4.636008199E0,1.303583812E0,-8.281926084E-1,4.886492175E0
1.973548596E1,4.244827133E0,8.974113625E-1,-1.069687877E0,4.468572110E0
1.974551296E1,3.827848152E0,4.709394264E-1,-1.337785639E0,4.082141084E0
1.975554096E1,3.456093290E0,1.453801998E-1,-1.515495971E0,3.776565142E0
1.976556796E1,3.040871982E0,-4.741858006E-2,-1.580655003E0,3.427480295E0
1.977559496E1,2.586012399E0,-1.865141925E-1,-1.664692356E0,3.081143994E0
1.978562196E1,2.262045661E0,-3.223578760E-1,-1.727946950E0,2.864710428E0
1.979564896E1,2.140479124E0,-4.985561183E-1,-1.678824930E0,2.765621491E0
1.980567596E1,2.141854389E0,-6.630435571E-1,-1.580895908E0,2.743428304E0
1.981570296E1,2.089186179E0,-7.161573252E-1,-1.414457839E0,2.622645836E0
1.982572996E1,2.053159145E0,-7.819563353E-1,-1.279971294E0,2.542684545E0
1.983575696E1,2.056637653E0,-8.753951338E-1,-1.025624430E0,2.459264229E0
1.984578396E1,1.915596964E0,-9.498722890E-1,-5.930514721E-1,2.218891422E0
1.985581096E1,1.736968619E0,-1.093038148E0,-1.349525678E-1,2.056697492E0
1.986583896E1,1.433350192E0,-1.325252717E0,4.348024642E-1,1.999960179E0
1.987586596E1,9.592830902E-1,-1.609994577E0,1.006546134E0,2.127308559E0
1.988589296E1,4.053143710E-1,-1.904671880E0,1.378027346E0,2.385584641E0
1.989591996E1,-1.726355338E-1,-2.259081561E0,1.704162816E0,2.835034997E0
1.990594696E1,-7.776346582E-1,-2.487816305E0,1.926849931E0,3.241403444E0
1.991597396E1,-1.385733976E0,-2.680218644E0,2.048263856E0,3.646808941E0
1.992600096E1,-1.991603166E0,-2.748336952E0,2.116255279E0,3.999796943E0
1.993602796E1,-2.567547476E0,-2.750441950E0,2.116234814E0,4.316906387E0
1.994605496E1,-3.006786223E0,-2.770411361E0,2.015731702E0,4.558411652E0
1.995608196E1,-3.353701528E0,-2.789504566E0,1.876485524E0,4.748667980E0
1.996610896E1,-3.580462983E0,-2.810230899E0,1.725874112E0,4.867828502E0
1.997613696E1,-3.705691631E0,-2.854986658E0,1.520690637E0,4.918902245E0
1.998616396E1,-3.795190868E0,-2.911422814E0,1.339410580E0,4.967280667E0
1.999619096E1,-3.905383986E0,-3.001934496E0,1.144392489E0,5.057001974E0
2.000621796E1,-3.873661087E0,-3.118389689E0,9.106851268E-1,5.055586204E0
2.001624496E1,-3.832846352E0,-3.181587858E0,7.331893873E-1,5.034955723E0
2.002627196E1,-3.752942396E0,-3.213583237E0,5.792275580E-1,4.974655607E0
2.003629896E1,-3.601844496E0,-3.313083259E0,4.993551403E-1,4.919264174E0
2.004632596E1,-3.477257288E0,-3.365733928E0,4.548508126E-1,4.860696697E0
2.005635296E1,-3.373762740E0,-3.364874095E0,4.836541969E-1,4.789423147E0
2.006637996E1,-3.222214605E0,-3.380214558E0,5.088732380E-1,4.697602515E0
2.007640796E1,-3.069615725E0,-3.399518555E0,5.154191959E-1,4.609221632E0
2.008643496E1,-2.913735972E0,-3.376983679E0,5.492675579E-1,4.493948256E0
2.009646196E1,-2.720763237E0,-3.312929478E0,6.306970525E-1,4.333108941E0
2.010648896E1,-2.600756738E0,-3.178561924E0,7.471022522E-1,4.174368609E0
2.011651596E1,-2.489641514E0,-2.985393308E0,8.928183746E-1,3.988485015E0
2.012654296E1,-2.394153559E0,-2.772880640E0,1.086058327E0,3.821041873E0
2.013656996E1,-2.318173669E0,-2.565938030E0,1.274685996E0,3.685483892E0
2.014659696E1,-2.236451814E0,-2.475994990E0,1.449827646E0,3.637893361E0
2.015662396E1,-2.031772369E0,-2.545487978E0,1.613171954E0,3.634546981E0
2.016665096E1,-1.680260568E0,-2.760096872E0,1.762532061E0,3.680751226E0
2.017667796E1,-1.248545433E0,-3.069405225E0,1.812141008E0,3.776767026E0
2.018670596E1,-7.258160484E-1,-3.335958737E0,1.747855550E0,3.835417663E0
2.019673296E1,-3.231136286E-1,-3.539212046E0,1.615455877E0,3.903859886E0
2.020675996E1,-1.225342512E-1,-3.601352745E0,1.426390836E0,3.875480236E0
2.021678621E1,-1.639073950E-1,-3.521378038E0,1.333064597E0,3.768823442E0
2.022681321E1,-4.703237146E-1,-3.387608947E0,1.230420234E0,3.634698436E0
2.023684021E1,-6.757609588E-1,-3.160598985E0,9.467776501E-1,3.367851947E0
2.024686721E1,-5.783276349E-1,-2.793965700E0,5.028009045E-1,2.897156526E0
2.025689421E1,-4.504227161E-2,-2.531273982E0,-8.554476500E-2,2.533119556E0
2.026692121E1,3.833270860E-1,-2.450095771E0,-7.611671448E-1,2.594086422E0
2.027694821E1,5.603597260E-1,-2.532335544E0,-1.318244244E0,2.909380383E0
2.028697521E1,6.443193108E-1,-2.517900522E0,-1.610852364E0,3.057746842E0
2.029700321E1,1.024859614E0,-2.479118865E0,-1.777292773E0,3.217939896E0
2.030703021E1,1.839818804E0,-2.476652217E0,-1.567163138E0,3.460453689E0
2.031705721E1,2.647228653E0,-2.368789214E0,-8.312518716E-1,3.648282001E0
2.032708421E1,2.961780789E0,-1.878500474E0,7.471922080E-2,3.508061065E0
2.033711121E1,3.286179051E0,-1.040863443E0,7.455504012E-1,3.526785344E0
2.034713821E1,3.402876027E0,1.584779629E-1,1.252223332E0,3.629427474E0
2.035716521E1,3.309344550E0,1.454122134E0,1.531451268E0,3.925757954E0
2.036719221E1,3.295594237E0,2.533363484E0,1.264225327E0,4.344782802E0
2.037721921E1,3.484517190E0,3.181219191E0,7.218949056E-1,4.773169581E0
2.038724621E1,3.644708095E0,3.347661939E0,-1.202246010E-1,4.950271862E0
2.039727321E1,3.818532953E0,2.836906774E0,-1.212472206E0,4.909106111E0
2.040730121E1,3.866747923E0,1.975140623E0,-2.322810511E0,4.924263260E0
2.041732821E1,3.701675763E0,1.401659453E0,-3.126959369E0,5.044296539E0
2.042735521E1,3.641748819E0,1.085930273E0,-3.517463327E0,5.178235923E0
2.043738221E1,3.567975084E0,9.638997594E-1,-3.493323097E0,5.085553579E0
2.044740921E1,3.387649292E0,1.138451718E0,-2.947015400E0,4.632185209E0
2.045743621E1,2.889176497E0,1.623622098E0,-1.911910880E0,3.826080600E0
2.046746321E1,2.231982787E0,2.203120053E0,-8.049130887E-1,3.237803300E0
2.047749021E1,1.473489574E0,2.672059732E0,1.133786809E-1,3.053511005E0
2.048751721E1,6.693044633E-1,2.923867150E0,7.289887476E-1,3.086809384E0
2.049754421E1,-1.701387727E-1,3.137714152E0,1.123065355E0,3.336985630E0
2.050757121E1,-8.441596001E-1,3.212090735E0,1.307564889E0,3.569293804E0
2.051759921E1,-1.439482752E0,3.219570494E0,1.234398680E0,3.736507040E0
2.052762621E1,-1.950203125E0,3.158309215E0,1.042214735E0,3.855440427E0
2.053765321E1,-2.279248170E0,3.092872148E0,8.239603937E-1,3.929343593E0
2.054768021E1,-2.474203695E0,3.043799683E0,6.855708325E-1,3.982010522E0
2.055770721E1,-2.526881846E0,2.983099152E0,6.770806754E-1,3.967675725E0
2.056773421E1,-2.453880528E0,2.858615440E0,7.465865278E-1,3.840651419E0
2.057776121E1,-2.338459414E0,2.675288564E0,8.960507154E-1,3.664487443E0
2.058778821E1,-2.138329688E0,2.444167718E0,1.097911803E0,3.428092766E0
2.059781521E1,-1.877164385E0,2.190782720E0,1.323431894E0,3.174074201E0
2.060784221E1,-1.687338037E0,1.957066880E0,1.626543367E0,3.053336494E0
2.061786921E1,-1.429776374E0,1.780273683E0,1.966495807E0,3.013426725E0
2.062789721E1,-1.134545193E0,1.658157508E0,2.353353442E0,3.094341859E0
2.063792421E1,-8.692546803E-1,1.562997289E0,2.705517207E0,3.243206374E0
2.064795121E1,-5.979848045E-1,1.430191234E0,3.033879297E0,3.406971732E0
2.065797821E1,-3.899964201E-1,1.314477468E0,3.343254308E0,3.613488285E0
2.066800521E1,-1.678951961E-1,1.242903747E0,3.612522097E0,3.824044249E0
2.067803221E1,3.735961497E-2,1.131376295E0,3.853629695E0,4.016449911E0
2.068805921E1,2.354755604E-1,1.092370689E0,3.977945008E0,4.131920734E0
2.069808621E1,3.602703452E-1,1.147110860E0,3.917923340E0,4.098265650E0
2.070811321E1,4.071819717E-1,1.195267943E0,3.661718230E0,3.873324543E0
2.071814021E1,4.441077232E-1,1.195041364E0,3.292746059E0,3.530939271E0
2.072816721E1,4.000384283E-1,1.169528500E0,2.790008304E0,3.051552718E0
2.073819421E1,2.426804996E-1,1.008620142E0,2.318026904E0,2.539578143E0
2.074822221E1,1.919237441E-1,6.212760186E-1,1.930024384E0,2.036617966E0
2.075824921E1,2.609799457E-1,1.482000196E-1,1.674006386E0,1.700697256E0
2.076827621E1,2.939062017E-1,-3.531536990E-1,1.500201409E0,1.568981408E0
2.077830321E1,3.417738479E-1,-8.295766443E-1,1.386654328E0,1.651610425E0
2.078833021E1,3.672150832E-1,-1.246398920E0,1.403339943E0,1.912516714E0
2.079835721E1,3.525145984E-1,-1.454485538E0,1.531110960E0,2.141050092E0
2.080838421E1,3.749854481E-1,-1.379115513E0,1.544483542E0,2.104282086E0
2.081841121E1,5.458872825E-1,-1.126902882E0,1.487123526E0,1.944078037E0
2.082843821E1,9.252353382E-1,-1.087140062E0,1.332398599E0,1.952746776E0
2.083846521E1,1.329738700E0,-1.119770449E0,1.096256456E0,2.055205364E0
2.084849221E1,1.515148062E0,-1.141499872E0,8.348590189E-1,2.072603480E0
2.085851921E1,1.713316047E0,-1.166637929E0,5.440717220E-1,2.143014226E0
2.086854721E1,2.075855697E0,-1.289671240E0,2.672259414E-1,2.458421950E0
2.087857421E1,2.530377896E0,-1.559576083E0,1.749808520E-1,2.977533905E0
2.088860121E1,2.872503746E0,-1.901939623E0,2.263908146E-1,3.452521528E0
2.089862821E1,3.075586317E0,-2.202485045E0,3.546254432E-1,3.799464537E0
2.090865521E1,3.104480333E0,-2.405230232E0,2.886934090E-1,3.937800717E0
2.091868221E1,2.974920652E0,-2.413163441E0,2.037117308E-1,3.836014748E0
2.092870921E1,2.786345608E0,-2.293603084E0,6.722821578E-2,3.609550746E0
2.093873621E1,2.735682408E0,-2.237137400E0,-2.512333681E-1,3.542860453E0
2.094876321E1,2.792222060E0,-2.205589625E0,-7.702940637E-1,3.640670621E0
2.095879021E1,2.748902963E0,-2.024999539E0,-1.461684045E0,3.713975078E0
2.096881721E1,2.389723123E0,-1.794987324E0,-2.199092637E0,3.710628589E0
2.097884421E1,1.700793650E0,-1.754432791E0,-2.943414100E0,3.825496049E0
2.098887121E1,1.196348509E0,-1.770130518E0,-3.466758612E0,4.072226305E0
2.099889921E1,6.015779185E-1,-1.632116056E0,-3.741399407E0,4.125986953E0
2.100892621E1,-6.375803947E-3,-1.256646751E0,-3.378235860E0,3.604397208E0
2.101895321E1,-2.982571149E-1,-8.272286949E-1,-2.468085753E0,2.620059523E0
2.102898021E1,-6.012054509E-1,-3.300946194E-1,-1.652074065E0,1.788787066E0
2.103900721E1,-7.667769635E-1,1.325210032E-1,-9.595720889E-1,1.235430015E0
2.104903421E1,-8.903736538E-1,4.613631490E-1,-6.174684580E-1,1.177662301E0
2.105906121E1,-9.416595823E-1,7.897802022E-1,-1.502051760E-1,1.238158767E0
2.106908821E1,-1.117456706E0,1.304912592E0,3.516597354E-1,1.753616529E0
2.107911521E1,-1.222285588E0,1.413053630E0,2.721176489E-1,1.888054722E0
2.108914221E1,-1.403056353E0,1.534764885E0,1.959916520E-1,2.088655814E0
2.109916921E1,-1.545427868E0,1.505025069E0,8.275988236E-2,2.158772094E0
2.110919621E1,-1.629272262E0,1.433333528E0,-4.974664897E-3,2.170022547E0
2.111922421E1,-1.686948613E0,1.275157866E0,8.688962460E-3,2.114686432E0
2.112925121E1,-1.714185528E0,1.040874553E0,7.738672972E-2,2.006948072E0
2.113927821E1,-1.678636796E0,7.743455994E-1,1.283101308E-1,1.853077465E0
2.114930521E1,-1.620450568E0,4.351345861E-1,1.745048887E-1,1.686906668E0
2.115933221E1,-1.488310511E0,1.099908042E-1,2.307913560E-1,1.510109534E0
2.116935921E1,-1.286714888E0,-3.127813062E-1,3.458569586E-1,1.368606731E0
2.117938621E1,-1.158907617E0,-7.257593304E-1,6.074912077E-1,1.496275054E0
2.118941321E1,-1.092041198E0,-1.137666145E0,9.617313194E-1,1.847096469E0
2.119944021E1,-1.243698676E0,-1.465129517E0,1.279317575E0,2.308688883E0
2.120946721E1,-1.369161213E0,-1.641888800E0,1.546670986E0,2.638672469E0
2.121949504E1,-1.339385437E0,-1.703072310E0,1.728490741E0,2.771658147E0
2.122952204E1,-1.303426815E0,-1.671175164E0,1.854225758E0,2.816007999E0
2.123955004E1,-1.230141907E0,-1.571167311E0,1.992394295E0,2.819831707E0
2.124957704E1,-1.157393773E0,-1.495010836E0,2.237331820E0,2.929210033E0
2.125960404E1,-1.151290450E0,-1.443041660E0,2.412269987E0,3.037578875E0
2.126963104E1,-1.172506487E0,-1.442052311E0,2.535151563E0,3.143450298E0
2.127965804E1,-1.216429601E0,-1.492414379E0,2.543014898E0,3.189659297E0
2.128968504E1,-1.290146618E0,-1.571443007E0,2.496333067E0,3.219563667E0
2.129971204E1,-1.386263149E0,-1.669611619E0,2.410865486E0,3.243701723E0
2.130973904E1,-1.406744192E0,-1.773524827E0,2.266191337E0,3.203114532E0
2.131976604E1,-1.336011009E0,-1.870636261E0,2.145997142E0,3.144759000E0
2.132979304E1,-1.245211936E0,-1.871399908E0,2.058444443E0,3.047931086E0
2.133982004E1,-1.004507795E0,-1.871391722E0,2.016082535E0,2.928435021E0
2.134984704E1,-7.858570129E-1,-1.854462571E0,2.143570547E0,2.941342782E0
2.135987404E1,-6.682619047E-1,-1.688528238E0,2.310644209E0,2.938839609E0
2.136990204E1,-6.868174589E-1,-1.511718377E0,2.416387596E0,2.931883301E0
2.137992904E1,-6.487725502E-1,-1.386605211E0,2.515845226E0,2.945005439E0
2.138995604E1,-6.075683910E-1,-1.286133674E0,2.516189042E0,2.890412855E0
2.139998304E1,-5.878106493E-1,-1.205723934E0,2.397337368E0,2.747092648E0
2.141001004E1,-4.801078606E-1,-1.180807194E0,2.072137452E0,2.432809653E0
2.142003704E1,-2.065271652E-1,-1.219581835E0,1.700976083E0,2.103176873E0
2.143006404E1,4.063803184E-1,-1.459960286E0,1.256967763E0,1.968907554E0
2.144009104E1,1.076593439E0,-1.749100130E0,8.934217342E-1,2.239778358E0
2.145011804E1,1.647203919E0,-2.009954068E0,7.553479958E-1,2.706242173E0
2.146014504E1,2.101022113E0,-2.057847150E0,8.487174316E-1,3.060939413E0
2.147017204E1,2.662998594E0,-1.915298756E0,1.085689879E0,3.455235643E0
2.148019904E1,3.123771467E0,-1.704968854E0,1.457004519E0,3.845481652E0
2.149022604E1,3.005092285E0,-1.139374701E0,1.993688868E0,3.782003391E0
2.150025304E1,2.457662507E0,-3.076448196E-1,2.500421441E0,3.519496798E0
2.151028104E1,1.653251694E0,7.719739687E-1,2.918269318E0,3.441726425E0
2.152030804E1,7.242156655E-1,1.910425394E0,3.100552758E0,3.713171276E0
2.153033504E1,-1.152755177E-1,2.946209946E0,2.954326758E0,4.173905615E0
2.154036204E1,-3.082511759E-1,3.424657490E0,2.220885941E0,4.093364395E0
2.155038904E1,-3.855127752E-2,3.466018939E0,1.357507128E0,3.722579628E0
2.156041604E1,4.052488822E-1,3.207257427E0,4.538678956E-1,3.264463651E0
2.157044304E1,9.668961650E-1,2.638438534E0,-7.275374687E-1,2.902680978E0
2.158047004E1,1.427345687E0,1.941081761E0,-1.657203827E0,2.924284295E0
2.159049704E1,1.617162679E0,1.293736224E0,-2.274347034E0,3.075975126E0
2.160052404E1,1.723477923E0,8.273070475E-1,-2.550268954E0,3.187269182E0
2.161055104E1,1.835705872E0,6.453843811E-1,-2.335793084E0,3.040109600E0
2.162057804E1,1.939210360E0,6.611853120E-1,-1.463435286E0,2.517805726E0
2.163060504E1,1.702707444E0,1.014855905E0,-3.064081335E-1,2.005749509E0
2.164063204E1,1.395119927E0,1.395487132E0,5.872265124E-1,2.058780931E0
2.165066004E1,1.043985856E0,1.658223289E0,1.379621297E0,2.396448595E0
2.166068704E1,6.196639413E-1,1.939477870E0,1.968800780E0,2.832266640E0
2.167071404E1,2.567073852E-1,2.102518123E0,2.293619456E0,3.122046020E0
2.168074104E1,-8.552722335E-2,2.062055098E0,2.535540987E0,3.269304855E0
2.169076804E1,-4.288289487E-1,1.865508838E0,2.538203809E0,3.179071573E0
2.170079504E1,-7.989150149E-1,1.595697843E0,2.285034574E0,2.899292985E0
2.171082204E1,-1.118743093E0,1.307566351E0,1.897005157E0,2.561238848E0
2.172084904E1,-1.288649147E0,1.030486974E0,1.488697597E0,2.222327735E0
2.173087604E1,-1.338200206E0,7.858529198E-1,1.232457404E0,1.981740613E0
2.174090304E1,-1.326057293E0,5.737592053E-1,1.094453759E0,1.812582854E0
2.175093004E1,-1.290809108E0,3.810381934E-1,1.034635574E0,1.697600963E0
2.176095704E1,-1.219121659E0,1.938948405E-1,1.072808536E0,1.635472710E0
2.177098404E1,-1.151400962E0,1.094513986E-1,1.145157305E0,1.627602235E0
2.178101104E1,-1.143923542E0,3.796977192E-2,1.235426620E0,1.684126393E0
2.179103904E1,-1.151249519E0,-1.670783401E-2,1.357062739E0,1.779683647E0
2.180106604E1,-1.258852320E0,-5.462731987E-2,1.456212806E0,1.925681449E0
2.181109304E1,-1.301923496E0,-1.181807068E-1,1.469020547E0,1.966467095E0
2.182112004E1,-1.355981004E0,-2.600712883E-1,1.532410212E0,2.062668809E0
2.183114704E1,-1.403236447E0,-4.418135682E-1,1.543818129E0,2.132521083E0
2.184117404E1,-1.456558376E0,-6.363890246E-1,1.549377662E0,2.219712691E0
2.185120104E1,-1.542798375E0,-7.581555364E-1,1.508238991E0,2.286878112E0
2.186122804E1,-1.550404433E0,-9.018037909E-1,1.434057705E0,2.296415791E0
2.187125504E1,-1.551326539E0,-9.596771926E-1,1.381445628E0,2.288227779E0
2.188128204E1,-1.542351648E0,-9.219573891E-1,1.225378765E0,2.174949919E0
2.189130904E1,-1.479627396E0,-9.268044385E-1,9.811452448E-1,2.002725565E0
2.190133604E1,-1.337653491E0,-8.503833765E-1,6.906239963E-1,1.728996893E0
2.191136304E1,-1.156236609E0,-8.176702514E-1,4.153908777E-1,1.475810732E0
2.192139004E1,-1.018869726E0,-8.556897247E-1,2.841887140E-1,1.360538000E0
2.193141804E1,-9.344178057E-1,-8.510461584E-1,2.251686734E-1,1.283790143E0
2.194144504E1,-8.875313222E-1,-8.397931919E-1,1.874336672E-1,1.236161734E0
2.195147204E1,-8.983089101E-1,-8.067137387E-1,1.084038790E-1,1.212228260E0
2.196149904E1,-1.000800660E0,-8.053680021E-1,1.617871946E-1,1.294756609E0
2.197152604E1,-1.065038171E0,-7.733112270E-1,2.378331578E-1,1.337490625E0
2.198155304E1,-1.015978863E0,-7.650116891E-1,3.161653823E-1,1.310502378E0
2.199158004E1,-9.314240313E-1,-6.973649588E-1,2.639684576E-1,1.193125290E0
2.200160704E1,-7.687755418E-1,-5.945723695E-1,1.526468271E-1,9.837851341E-1
2.201163404E1,-5.472011518E-1,-5.097982675E-1,3.670004904E-2,7.487791849E-1
2.202166104E1,-3.735002553E-1,-3.522160980E-1,6.768850129E-2,5.178227048E-1
2.203168804E1,-1.581297612E-1,-1.293269616E-1,2.350095008E-1,3.113839268E-1
2.204171504E1,2.264223164E-1,-3.939064533E-2,4.602822546E-1,5.144690877E-1
2.205174204E1,7.111518162E-1,-1.791686279E-1,4.986452883E-1,8.868401359E-1
2.206176904E1,1.197377034E0,-4.096375099E-1,4.311198513E-1,1.336928935E0
2.207179704E1,1.679051363E0,-6.673512009E-1,3.502242805E-1,1.840442380E0
2.208182404E1,2.171659986E0,-8.967693383E-1,3.827873880E-1,2.380510140E0
2.209185104E1,2.698519260E0,-1.140373113E0,5.468737078E-1,2.980189236E0
2.210187804E1,3.153709795E0,-1.303790219E0,6.495771271E-1,3.473860224E0
2.211190504E1,3.433235940E0,-1.141786678E0,7.110056359E-1,3.687318111E0
2.212193204E1,3.188235265E0,-7.806500673E-1,8.096160042E-1,3.380789362E0
2.213195904E1,2.708070686E0,-2.932647622E-1,9.329367059E-1,2.879239823E0
2.214198604E1,2.331129345E0,8.298836231E-2,1.117337422E0,2.586405615E0
2.215201304E1,2.054671234E0,1.656101042E-1,1.358067876E0,2.468491228E0
2.216204004E1,1.898794990E0,-2.336021125E-2,1.629874526E0,2.502490576E0
2.217206704E1,1.895871967E0,-4.148269138E-1,1.923703544E0,2.732589836E0
2.218209404E1,1.959739934E0,-8.849570855E-1,2.324136075E0,3.166281438E0
2.219212104E1,1.773791460E0,-1.274934502E0,2.720944501E0,3.489316997E0
2.220214804E1,1.450537498E0,-1.501543930E0,3.331776223E0,3.931847658E0
2.221217504E1,1.039460111E0,-1.508684257E0,3.844157206E0,4.258421085E0
2.222220242E1,5.927725965E-1,-1.306863808E0,4.325122268E0,4.556967742E0
2.223222942E1,1.692178363E-1,-9.194544885E-1,4.735455304E0,4.826859038E0
2.224225642E1,-1.285329098E-1,-5.506679660E-1,4.912493792E0,4.944931867E0
2.225228342E1,-2.897406453E-1,-2.614342743E-1,4.813275898E0,4.829070551E0
2.226231042E1,-7.166289032E-1,1.057004097E-1,4.419385232E0,4.478358560E0
2.227233742E1,-1.071216924E0,4.191018131E-1,3.822501458E0,3.991825325E0
2.228236442E1,-1.368225074E0,6.533836645E-1,3.300932161E0,3.632506462E0
2.229239142E1,-1.618506369E0,7.942243785E-1,2.791846669E0,3.323366223E0
2.230241842E1,-1.812162058E0,7.661349392E-1,2.270050499E0,3.004001222E0
2.231244542E1,-1.952262515E0,6.061144808E-1,1.822704588E0,2.738787269E0
2.232247242E1,-2.062074979E0,3.629717588E-1,1.365816021E0,2.499871021E0
2.233249942E1,-2.155057987E0,3.158899784E-2,1.063375223E0,2.403339272E0
2.234252642E1,-2.168683169E0,-3.206121898E-1,8.763029140E-1,2.360907804E0
2.235255342E1,-2.106754138E0,-7.363954157E-1,7.770996380E-1,2.363170552E0
2.236258042E1,-2.041717898E0,-1.065725512E0,7.633785617E-1,2.426340798E0
2.237260742E1,-1.930503856E0,-1.317242616E0,8.397665870E-1,2.483380995E0
2.238263542E1,-1.848465081E0,-1.447337902E0,9.893664300E-1,2.547637355E0
2.239266242E1,-1.672346361E0,-1.555680376E0,1.195528729E0,2.578017208E0
2.240268942E1,-1.513752916E0,-1.538101014E0,1.523785568E0,2.641803376E0
2.241271642E1,-1.279361429E0,-1.505739892E0,1.793443952E0,2.668418913E0
2.242274342E1,-1.062194670E0,-1.431339627E0,1.999589878E0,2.678684440E0
2.243277042E1,-7.743263036E-1,-1.375536432E0,2.084023672E0,2.614351998E0
2.244279742E1,-5.256693649E-1,-1.298140347E0,2.076027020E0,2.504273314E0
2.245282442E1,-2.571120125E-1,-1.306468829E0,2.039280778E0,2.435494504E0
2.246285142E1,-1.587577522E-1,-1.266699576E0,2.045113961E0,2.410855232E0
2.247287842E1,-7.861230612E-2,-1.179821646E0,2.019227167E0,2.339965249E0
2.248290542E1,1.051095486E-2,-1.009320346E0,1.898133670E0,2.149825451E0
2.249293242E1,8.555528998E-2,-8.363863117E-1,1.846256003E0,2.028675183E0
2.250295942E1,5.943753183E-2,-6.108606657E-1,1.921837113E0,2.017459160E0
2.251298642E1,4.662394345E-2,-3.501283497E-1,1.968392644E0,1.999833307E0
2.252301342E1,1.696055067E-1,-1.288857892E-1,1.949027835E0,1.960634356E0
2.253304142E1,3.180341524E-1,9.009623766E-2,1.948245478E0,1.976087927E0
2.254306842E1,4.499122542E-1,2.996467057E-1,1.867434618E0,1.944099082E0
2.255309542E1,6.216835696E-1,4.386540252E-1,1.677815262E0,1.842273560E0
2.256312242E1,7.408135718E-1,5.440840012E-1,1.545503297E0,1.798169233E0
2.257314942E1,7.322737134E-1,6.322152820E-1,1.506277835E0,1.790193808E0
2.258317642E1,7.482132232E-1,6.375444344E-1,1.440386732E0,1.743846286E0
2.259320342E1,7.942775881E-1,5.842078874E-1,1.426867969E0,1.734395556E0
2.260323042E1,8.146744305E-1,5.193821463E-1,1.524041677E0,1.804481996E0
