"Time (s)","Linear Acceleration x (m/s^2)","Linear Acceleration y (m/s^2)","Linear Acceleration z (m/s^2)","Absolute acceleration (m/s^2)"
5.916343542E0,-9.690412745E0,-3.471299267E0,-4.925723702E-1,1.030517566E1
5.926371542E0,-9.048251642E0,-3.293759674E0,5.001182020E-1,9.642086329E0
5.936399542E0,-7.397562198E0,-3.579107598E0,7.945898294E-1,8.256228598E0
5.946427542E0,-8.559275309E0,-2.449930441E0,4.877808693E-1,8.916349206E0
5.956455542E0,-1.008174233E1,-2.566550818E0,8.883394074E-1,1.044116174E1
5.966483542E0,-1.053845431E1,-3.405910439E0,1.304790093E0,1.115175871E1
5.976512542E0,-9.901125348E0,-3.587019466E0,2.099141064E0,1.073803450E1
5.986540542E0,-4.779169089E0,-2.129865551E0,1.292472933E0,5.389551997E0
5.996568542E0,-5.336726829E0,-1.601758189E0,6.368024227E-1,5.608190427E0
6.006596542E0,-5.540505803E0,-1.756616726E0,1.135611141E-1,5.813415777E0
6.016624542E0,-6.049825183E0,-2.102283650E0,9.775562239E-1,6.478857728E0
6.026652542E0,-7.225368714E0,-2.851059667E0,1.319550219E0,7.878813810E0
6.036680542E0,-7.331771666E0,-3.265396292E0,1.281190731E0,8.127677307E0
6.046708542E0,-3.616113456E0,-2.712171046E0,1.329474406E0,4.711650508E0
6.056736542E0,1.138945223E0,-1.865005100E0,1.526891902E0,2.665865549E0
6.066765542E0,3.549837606E0,-1.038414921E0,1.397454135E0,3.953799519E0
6.076793542E0,4.399014702E0,2.704544815E-1,9.887048176E-1,4.516858775E0
6.086821542E0,4.067862321E0,1.980216299E0,-1.123133183E-1,4.525635285E0
6.096849542E0,3.338099402E0,2.068991650E0,-1.462749700E0,4.190855611E0
6.106877542E0,2.815818499E0,1.076898956E0,-3.038310024E0,4.280172074E0
6.116905542E0,3.359995471E0,2.799594229E-1,-3.136937934E0,4.605249879E0
6.126933542E0,3.788691688E0,7.361822847E-1,-2.879742891E0,4.815502900E0
6.136961542E0,3.754249249E0,1.078272175E0,-2.935856281E0,4.886339162E0
6.146989542E0,3.415561561E0,1.045983265E0,-2.939961027E0,4.626393045E0
6.157017542E0,2.891370957E0,1.031894399E0,-2.547000360E0,3.988990210E0
6.167046542E0,2.032104490E0,9.212276566E-1,-2.117626159E0,3.076109492E0
6.177074542E0,5.407575202E-1,5.580062217E-1,-1.918992150E0,2.070343090E0
6.187102542E0,-1.424206316E-1,-8.160520345E-2,-1.782963402E0,1.790503153E0
6.197130542E0,-2.533481598E-2,-1.802050468E-1,-1.582462670E0,1.592891652E0
6.207158542E0,3.508680224E-1,3.287743181E-2,-1.355905575E0,1.400952970E0
6.217186542E0,1.268152317E0,9.380269995E-1,-1.375474159E0,2.092853104E0
6.227214542E0,1.875070497E0,1.962912633E0,-1.788769395E0,3.250940068E0
6.237242917E0,1.548904622E0,2.439493746E0,-2.280738040E0,3.681304290E0
6.247270917E0,1.535629689E0,2.380095390E0,-2.555667396E0,3.815029285E0
6.257299917E0,1.927870270E0,2.764933982E0,-2.711670817E0,4.326049274E0
6.267327917E0,2.815382296E0,2.834442758E0,-2.593426960E0,4.763014447E0
6.277355917E0,5.108854403E0,2.879896966E0,-2.954294014E0,6.566738381E0
6.287383917E0,6.794240640E0,3.498128924E0,-1.589668486E0,7.805488949E0
6.297411917E0,5.903153626E0,2.944097347E0,1.132284075E-2,6.596594585E0
6.307439917E0,2.219197265E0,4.114978015E-3,1.965313500E0,2.964339823E0
6.317467917E0,2.042010843E0,-8.154988879E-1,2.844038916E0,3.594913639E0
6.327495917E0,1.932455657E0,-1.105836242E0,3.415722652E0,4.077305469E0
6.337523917E0,1.706403469E0,-1.511296208E0,3.764404400E0,4.400746473E0
6.347551917E0,8.219904667E-1,-1.942423405E0,3.719993628E0,4.276333664E0
6.357580917E0,3.860273302E-2,-2.286367155E0,3.418392490E0,4.112708615E0
6.367608917E0,4.344761896E-1,-2.472331709E0,3.197208402E0,4.064890553E0
6.377636917E0,5.619870061E-1,-2.269947588E0,2.985480723E0,3.792306237E0
6.387664917E0,1.033634530E0,-1.363270436E0,2.205751885E0,2.791459833E0
6.397692917E0,1.335871845E0,1.926982078E-1,1.328493243E0,1.893826941E0
6.407720917E0,7.190788865E-1,3.114222671E-1,9.387564397E-1,1.222833565E0
6.417748917E0,-5.376152265E-1,-4.011973464E-1,7.756515750E-1,1.025487595E0
6.427776917E0,-1.382839020E0,2.809265524E-1,5.303740346E-1,1.507468109E0
6.437804917E0,-2.284981365E0,8.857303798E-1,6.334429049E-1,2.531187084E0
6.447833917E0,-3.356809323E0,2.485129510E-1,9.082585323E-1,3.486382234E0
6.457861917E0,-3.847961989E0,8.211756572E-2,1.817948755E0,4.256582249E0
6.467889917E0,-4.689302062E0,9.907668382E-2,3.039367493E0,5.589018230E0
6.477917917E0,-5.807663916E0,-3.759459995E-1,3.270616686E0,6.675869162E0
6.487945917E0,-5.489723904E0,-4.920532836E-1,2.466065540E0,6.038266657E0
6.497973917E0,-3.602405829E0,1.239216347E0,1.811545469E0,4.218374319E0
6.508001917E0,-6.754899403E0,-7.356762081E-2,1.393039195E0,6.897436940E0
6.518029917E0,-7.816028711E0,-2.342982528E0,4.859737873E-2,8.159793726E0
6.528057917E0,-4.467690834E0,-9.481548156E-1,-4.514529955E-1,4.589451901E0
6.538085917E0,-3.680862014E0,3.480672061E-2,1.303215730E-1,3.683332783E0
6.548114917E0,-3.542423337E0,-3.574059404E-1,-9.215241104E-2,3.561599945E0
6.558142917E0,-1.641712214E0,1.281803226E-1,-4.657549927E-1,1.711308535E0
6.568170917E0,-1.533432305E-1,9.907976823E-1,-2.628878921E-2,1.002938330E0
6.578198917E0,1.776123914E0,1.564847640E0,-3.038514385E-1,2.386564475E0
6.588226917E0,2.874180728E0,2.093338579E0,-6.337051526E-1,3.611725832E0
6.598254917E0,2.463395117E0,2.434302003E0,-1.470912706E0,3.762675369E0
6.608282917E0,9.424051023E-1,1.223330193E0,-1.372586804E0,2.066073250E0
6.618310917E0,9.589264101E-1,5.704716083E-1,-9.577674919E-1,1.470474850E0
6.628338917E0,1.352893674E0,1.728338567E0,-1.459570569E0,2.635872103E0
6.638366917E0,6.580474037E-1,1.421440583E0,-1.204715289E0,1.976071519E0
6.648395917E0,-5.405575454E-1,7.667513819E-1,-1.897230568E0,2.116505131E0
6.658423917E0,1.697610426E-1,1.904114348E0,-2.523295456E0,3.165673739E0
6.668451917E0,-1.489640168E0,2.269131025E0,-2.407353648E0,3.628131065E0
6.678479917E0,-2.468444772E0,1.402118167E0,-3.346944485E0,4.388757493E0
6.688507917E0,-6.007804168E0,-6.527276069E-1,-2.557757191E0,6.562155598E0
6.698535917E0,8.331656653E-1,-8.402083442E-1,-2.794143163E0,3.034361729E0
6.708563917E0,2.317363245E0,2.434157431E0,-2.880948880E0,4.426642210E0
6.718591917E0,3.784251312E0,1.661314420E0,-2.035773911E0,4.607048839E0
6.728619917E0,5.651011747E0,1.526544870E0,-1.326737909E0,6.002041859E0
6.738648917E0,3.971493191E0,1.125256745E0,-1.135093077E0,4.281050946E0
6.748676917E0,3.550626395E0,4.111332276E-1,-2.844876237E0,4.568292803E0
6.758704917E0,2.821604903E0,3.910457030E-1,-3.708956424E0,4.676615093E0
6.768732917E0,2.120510298E0,2.555339952E-1,-5.242848612E0,5.661212160E0
6.778760917E0,1.854315221E0,-3.239366242E-1,-6.348752389E0,6.621939049E0
6.788788917E0,2.762039902E0,3.831423140E-1,-5.960353428E0,6.580385661E0
6.798816917E0,4.343995911E-1,-5.291481659E-2,-5.678599495E0,5.695436349E0
6.808844917E0,1.919846136E0,-2.577651173E0,-4.221922128E0,5.306102261E0
6.818872917E0,2.791045600E0,-7.480629498E-1,-2.622307820E0,3.902054846E0
6.828901917E0,3.073922199E0,-1.064642315E0,-1.834683779E0,3.734772485E0
6.838929917E0,2.465282013E0,-1.646475648E0,-9.910901892E-1,3.125821049E0
6.848957917E0,1.693236124E0,-2.250165435E0,7.914677086E-1,2.925186180E0
6.858985917E0,2.417595631E0,-2.178591130E0,2.833209872E0,4.314870349E0
6.869013917E0,2.326868479E0,-1.923463370E0,3.300708212E0,4.473108869E0
6.879041917E0,1.709781990E0,-1.846360815E0,4.298160464E0,4.980621055E0
6.889069917E0,7.219311583E-1,-2.110475307E0,3.724836292E0,4.341623662E0
6.899097917E0,1.344207051E0,-1.900321552E0,3.426706062E0,4.142514819E0
6.909125917E0,2.320939402E0,-1.190499246E0,3.108125195E0,4.057645917E0
6.919154917E0,2.866399253E0,6.717485994E-2,2.755995635E0,3.976967322E0
6.929182917E0,3.827041236E0,5.902916229E-1,2.432985502E0,4.573194428E0
6.939210917E0,3.582407767E0,1.092446995E0,2.013131445E0,4.252032932E0
6.949238917E0,2.949115720E0,8.837148446E-1,2.474691938E0,3.949979195E0
6.959266917E0,2.077858953E0,1.060796894E0,3.159293302E0,3.927330142E0
6.969294917E0,1.765700083E0,1.547855924E0,3.004998145E0,3.813603098E0
6.979322917E0,1.154157339E0,1.455897933E0,3.120496441E0,3.631696022E0
6.989350917E0,3.934644037E-1,9.668157658E-1,3.992527672E0,4.126720753E0
6.999378917E0,-1.491975546E-1,4.665630779E-1,4.338170330E0,4.365737375E0
7.009406917E0,-1.173280658E0,4.229817331E-2,4.691542130E0,4.836211761E0
7.019435917E0,-1.605862350E0,-2.051837674E-1,4.561701198E0,4.840455773E0
7.029463917E0,-1.717015581E0,1.525159664E0,4.416001156E0,4.977481362E0
7.039491917E0,-1.233512827E0,2.931443680E0,4.164264781E0,5.239848958E0
7.049519917E0,-1.977945825E0,-3.475184450E-1,2.982892161E0,3.595926084E0
7.059547917E0,-3.152979478E0,-1.194597852E0,1.220953592E0,3.585954725E0
7.069575917E0,-2.859707699E0,4.860857615E-1,6.023439038E-1,2.962604542E0
7.079603917E0,-1.897191099E0,1.860399833E0,-4.169599780E-1,2.689661174E0
7.089631917E0,-2.430502775E0,1.460346202E0,-1.220257189E0,3.086904983E0
7.099659917E0,-2.355270744E0,1.087137431E0,-7.938399240E-1,2.712812175E0
7.109688917E0,-1.329521769E0,1.062711564E0,-2.801143742E-1,1.724948714E0
7.119716917E0,-8.032729447E-2,7.505383685E-1,5.352120209E-1,9.253173640E-1
7.129744917E0,9.436219078E-1,6.470400202E-1,1.425907856E0,1.828194822E0
7.139772917E0,2.006338150E0,9.844427821E-1,1.542521802E0,2.715491460E0
7.149800917E0,1.605002224E0,9.164224148E-2,1.299734590E0,2.067302698E0
7.159828917E0,4.434686226E-1,-1.344094492E0,1.753408651E0,2.253374429E0
7.169856917E0,-3.050176656E-1,-2.156222168E0,1.440165707E0,2.610824980E0
7.179884917E0,-1.666588023E0,-2.800635034E0,1.607965009E0,3.634091867E0
7.189912917E0,-3.242871648E0,-3.391773626E0,1.615780982E0,4.962972198E0
7.199941917E0,-4.695588988E0,-3.373146151E0,1.398226260E0,5.948252481E0
7.209969917E0,-6.639556058E0,-2.925693820E0,1.419398443E0,7.393110368E0
7.219997917E0,-5.956926375E0,-3.135632836E0,-9.466919884E-1,6.798043163E0
7.230025917E0,-4.107476038E0,-3.046049691E0,-3.090596119E0,5.975078451E0
7.240053792E0,-3.779319186E0,-2.116021683E0,-3.746050575E0,5.726578052E0
7.250081792E0,-4.677238086E0,-1.975574779E0,-3.547459836E0,6.193861728E0
7.260109792E0,-4.182568905E0,-2.485698444E0,-3.484114902E0,5.984282417E0
7.270137792E0,-3.132163975E0,-1.903699050E0,-3.770507724E0,5.258445563E0
7.280165792E0,-1.509292660E0,-6.984040090E-1,-4.697266554E0,4.982975574E0
7.290194792E0,9.313304758E-1,1.021496880E-1,-5.968615544E0,6.041703611E0
7.300222792E0,3.060726787E0,1.383011805E0,-7.714825687E0,8.414232318E0
7.310250792E0,4.390899936E0,2.699841900E0,-8.625375159E0,1.004819611E1
7.320278792E0,5.637627470E0,3.643177879E0,-7.614549447E0,1.015071189E1
7.330306792E0,5.558219942E0,3.266442944E0,-5.643962928E0,8.568417355E0
7.340334792E0,5.416509748E0,3.672581187E0,-4.196098777E0,7.773909915E0
7.350362792E0,4.413089535E0,3.693554565E0,-3.182743560E0,6.576287793E0
7.360390792E0,4.113548956E0,1.989704283E0,-2.584908152E0,5.249948409E0
7.370419792E0,3.639883558E0,1.135785388E0,-2.393443122E0,4.501925226E0
7.380447792E0,3.934062240E0,1.012101574E0,-1.704149952E0,4.405147257E0
7.390475792E0,4.691983010E0,3.111940795E-1,-2.421960577E-1,4.708524743E0
7.400503792E0,4.259418860E0,6.362618476E-2,1.240193855E0,4.436753105E0
7.410531792E0,3.826557087E0,1.049423182E-1,2.568264053E0,4.609721496E0
7.420559792E0,3.892873283E0,-3.389446726E-1,4.064958009E0,5.638548528E0
7.430587792E0,3.637557535E0,-4.220417932E-1,5.051707225E0,6.239366153E0
7.440615792E0,3.125646669E0,-5.720594198E-2,5.675106368E0,6.479179879E0
7.450643792E0,3.546978317E0,-6.348073527E-1,6.253101296E0,7.217015407E0
7.460672792E0,3.280763360E0,-1.526451606E0,7.138355713E0,8.003098463E0
7.470700792E0,3.039585595E0,-2.122116236E0,7.694894868E0,8.541303468E0
7.480728792E0,2.374350209E0,-2.424977448E0,7.705408162E0,8.419701270E0
7.490756792E0,1.348471425E0,-2.122368251E0,6.917280675E0,7.360135469E0
7.500784792E0,7.566133332E-1,-1.916287228E0,5.712941362E0,6.073081547E0
7.510812792E0,3.042440790E-1,-1.934991594E0,5.032676877E0,5.400425306E0
7.520840792E0,-1.562188911E-1,-2.071122960E0,4.701152321E0,5.139531867E0
7.530868792E0,-6.813707775E-1,-2.234987378E0,4.454606520E0,5.030204167E0
7.540896792E0,-1.204101332E0,-2.170943118E0,4.298427975E0,4.963802684E0
7.550925792E0,-1.804890461E0,-1.886524608E0,4.188878050E0,4.935919772E0
7.560953792E0,-2.062402423E0,-1.773066990E0,3.941361904E0,4.788695434E0
7.570981792E0,-2.162062951E0,-1.689748552E0,3.582903903E0,4.512977593E0
7.581009792E0,-2.336818101E0,-1.226118438E0,2.936828381E0,3.948296620E0
7.591037792E0,-2.763486503E0,-6.248629931E-1,1.844973417E0,3.381011435E0
7.601065792E0,-3.254798214E0,-2.117814732E-1,3.958085525E-1,3.285609109E0
7.611093792E0,-3.599303296E0,1.334758535E-1,-6.616823253E-1,3.662051818E0
7.621121792E0,-3.684667382E0,3.907822859E-1,-1.544427994E0,4.014317170E0
7.631149792E0,-3.662331603E0,3.963174064E-1,-2.213074938E0,4.297376053E0
7.641178792E0,-3.782939782E0,3.352406077E-1,-2.765596179E0,4.698035960E0
7.651206792E0,-3.719942465E0,1.646796660E-1,-3.105227607E0,4.848456437E0
7.661234792E0,-3.474059445E0,-1.781719700E-2,-3.136198554E0,4.680293565E0
7.671262792E0,-3.066500328E0,-2.461756727E-1,-2.614556459E0,4.037317451E0
7.681290792E0,-2.721352052E0,-3.371633184E-1,-2.070210795E0,3.435870898E0
7.691318792E0,-2.185192198E0,-1.543550912E-1,-1.688696346E0,2.765969230E0
7.701346792E0,-2.151073694E0,1.421865968E-1,-1.542683185E0,2.650887865E0
7.711374792E0,-2.120823124E0,5.306837909E-1,-1.376820481E0,2.583631291E0
7.721402792E0,-1.874470573E0,8.681445864E-1,-1.579068654E0,2.600148604E0
7.731431792E0,-1.669622728E0,1.110999479E0,-1.976389881E0,2.815684084E0
7.741459792E0,-1.405042652E0,1.135900139E0,-2.283102654E0,2.911523950E0
7.751487792E0,-8.633180022E-1,1.369061664E0,-2.700193318E0,3.148125119E0
7.761515792E0,-7.495352787E-1,1.514407365E0,-3.014822636E0,3.456065441E0
7.771543792E0,-1.005978954E0,1.648164909E0,-3.190662737E0,3.729446329E0
7.781571792E0,-5.151215726E-1,1.771149103E0,-3.285569186E0,3.767928377E0
7.791599792E0,-3.103117347E-1,1.412900725E0,-2.762535746E0,3.118362644E0
7.801627792E0,1.353718132E-1,1.239246022E0,-2.058507300E0,2.406555326E0
7.811655792E0,1.115006722E0,8.000499594E-1,-1.624770783E0,2.126781612E0
7.821684792E0,1.250075650E0,-1.901327419E-1,-1.872414107E0,2.259374732E0
7.831712792E0,1.340828530E0,-8.023789054E-1,-2.959962890E0,3.347090283E0
7.841740792E0,1.590611057E0,-4.851589778E-1,-3.429392565E0,3.811319474E0
7.851768792E0,1.324705417E0,-4.550116110E-1,-3.858521476E0,4.104883432E0
7.861796792E0,1.665253689E0,3.399389917E-1,-3.532004768E0,3.919653817E0
7.871824792E0,2.061445819E0,4.941365004E-1,-4.104468815E0,4.619566429E0
7.881852792E0,7.760676044E-1,3.072571492E-1,-3.719037901E0,3.811552281E0
7.891880792E0,1.533788985E-1,4.000629866E-1,-3.555290719E0,3.581014881E0
7.901908792E0,7.032621682E-2,1.779719952E-1,-3.211013094E0,3.216710260E0
7.911937792E0,-1.644190264E-1,6.218771124E-1,-2.577075514E0,2.656140615E0
7.921965792E0,-1.011509836E-2,4.453523031E-1,-2.022060436E0,2.070548090E0
7.931993792E0,2.640304381E-1,-1.504120213E-1,-1.201243213E0,1.239080750E0
7.942021792E0,3.521509016E-1,-3.079892206E-1,-4.645478350E-1,6.592968288E-1
7.952049792E0,4.354123288E-1,-3.587784281E-1,1.495039487E-1,5.836585365E-1
7.962077792E0,5.655146313E-1,-6.799785554E-1,5.678400689E-1,1.051009028E0
7.972105792E0,3.418533701E-1,-9.228248236E-1,9.385321990E-1,1.359894139E0
7.982133792E0,7.251863033E-1,-9.552721927E-1,1.199876719E0,1.696509439E0
7.992161792E0,1.503057774E0,-7.943699741E-1,1.237407657E0,2.102708738E0
8.002190792E0,2.070351713E0,-7.073762691E-1,1.246196022E0,2.517884415E0
8.012218792E0,2.520805419E0,-5.650573790E-1,1.333557517E0,2.907253937E0
8.022246792E0,3.007179156E0,-2.607770473E-1,1.687355579E0,3.458077500E0
8.032274792E0,3.374735717E0,2.280007723E-1,2.137413429E0,4.001170038E0
8.042302792E0,4.224015723E0,6.972249180E-1,2.334762220E0,4.876427590E0
8.052330792E0,4.397816607E0,8.233040437E-1,2.381744013E0,5.068661066E0
8.062358792E0,3.465014972E0,9.129614478E-1,2.313743818E0,4.265353188E0
8.072386792E0,2.678544002E0,9.576128331E-1,2.127992395E0,3.552459984E0
8.082414792E0,2.343185134E0,8.611109707E-1,2.536580622E0,3.558970347E0
8.092443792E0,1.890770271E0,4.118205678E-1,2.786784734E0,3.392753683E0
8.102471792E0,1.354508091E0,-2.563609377E-1,3.097947239E0,3.390824412E0
8.112499792E0,3.047557104E-1,-4.516082391E-1,3.191990932E0,3.238152583E0
8.122527792E0,-8.407682151E-1,-7.509389028E-1,3.186815561E0,3.380324518E0
8.132555792E0,-1.611610748E0,-9.775781509E-1,3.255710379E0,3.761993928E0
8.142583792E0,-2.218278083E0,-1.118153986E0,3.361406111E0,4.179722124E0
8.152611792E0,-2.884578246E0,-1.235151801E0,3.473268609E0,4.680810450E0
8.162639792E0,-3.382010238E0,-1.256829184E0,3.607190605E0,5.101905223E0
8.172667792E0,-3.585696241E0,-1.252508968E0,3.767860397E0,5.350025067E0
8.182696792E0,-3.523480112E0,-1.227596614E0,3.784712073E0,5.314691997E0
8.192724792E0,-3.292323305E0,-1.114480765E0,3.749909737E0,5.113050279E0
8.202752792E0,-2.956566242E0,-9.440546018E-1,3.635557787E0,4.780146803E0
8.212780792E0,-2.612684473E0,-7.383463392E-1,3.426351428E0,4.371631226E0
8.222808792E0,-2.215528722E0,-6.152823302E-1,3.160862110E0,3.908732421E0
8.232836792E0,-1.943645473E0,-4.990347129E-1,2.961292254E0,3.577156019E0
8.242864792E0,-1.673795886E0,-3.362131459E-1,2.834244537E0,3.308711840E0
8.252892792E0,-1.406999130E0,-1.637691084E-1,2.675608407E0,3.027432447E0
8.262920792E0,-1.169516805E0,3.375363708E-2,2.489056792E0,2.750329540E0
8.272948792E0,-1.028572596E0,2.319122672E-1,2.314365085E0,2.543232320E0
8.282977792E0,-8.773057115E-1,4.423860106E-1,2.162314382E0,2.375073510E0
8.293005792E0,-7.004116505E-1,7.933405718E-1,2.036301037E0,2.294882929E0
8.303033792E0,-6.616288233E-1,1.781079137E0,1.935103568E0,2.711940525E0
8.313061792E0,-6.277330989E-1,2.694563911E0,1.876964411E0,3.343309574E0
8.323089792E0,-4.607927531E-1,3.437696781E0,1.717309695E0,3.870302534E0
8.333117792E0,-2.235302836E-1,3.981076485E0,1.412993403E0,4.230305677E0
8.343145792E0,-4.498964667E-2,4.297302386E0,1.189505804E0,4.459120532E0
8.353173792E0,2.948651451E-1,4.191707518E0,1.117138909E0,4.348029061E0
8.363201792E0,6.629356760E-1,3.661223263E0,1.071165469E0,3.871877446E0
8.373229792E0,1.179423743E0,2.973443645E0,9.104418826E-1,3.325855063E0
8.383258792E0,1.570893661E0,2.495122109E0,7.299985617E-1,3.037472491E0
8.393286792E0,2.006041696E0,2.096831414E0,4.119723031E-1,2.930977046E0
8.403314792E0,2.338191612E0,1.694667230E0,5.357218981E-3,2.887744056E0
8.413342792E0,2.330371546E0,1.231755738E0,-4.519503012E-1,2.674343436E0
8.423370792E0,1.830857946E0,6.063539243E-1,-9.609434071E-1,2.154789579E0
8.433398792E0,1.650585364E0,1.187022784E-1,-1.567982333E0,2.279712892E0
8.443426792E0,1.932614116E0,-1.605458307E-1,-2.220530138E0,2.948139477E0
8.453454792E0,2.285214669E0,-4.241081992E-1,-3.148675343E0,3.913595567E0
8.463482792E0,2.996069446E0,-5.807957447E-1,-4.361681692E0,5.323346974E0
8.473511792E0,3.965463542E0,-7.663831535E-1,-5.787899158E0,7.057763166E0
8.483539792E0,4.575496534E0,-5.517008767E-1,-7.415234238E0,8.730706798E0
8.493567792E0,4.397794388E0,-7.200261354E-2,-8.820465170E0,9.856286607E0
8.503595792E0,3.235872531E0,4.275691661E-1,-9.027130330E0,9.599102480E0
8.513623792E0,1.879847673E0,6.803951696E-1,-7.635162052E0,7.892557533E0
8.523651792E0,9.273070067E-1,6.477530882E-1,-5.268078178E0,5.388147181E0
8.533679792E0,4.032052803E-1,4.431522882E-1,-2.699550709E0,2.765236423E0
8.543707792E0,1.075595319E-2,-4.187869406E-1,-2.117250475E-1,4.693886320E-1
8.553735792E0,-2.452392411E-1,-1.546713378E0,1.396612283E0,2.098330390E0
8.563764792E0,2.690327311E-1,-2.407028835E0,2.458388146E0,3.451063416E0
8.573792792E0,1.279273136E0,-3.001112377E0,3.478412697E0,4.768917084E0
8.583820792E0,1.909471421E0,-3.244744804E0,4.255478421E0,5.681861187E0
8.593848792E0,2.290482425E0,-3.052679265E0,4.538443898E0,5.929808888E0
8.603876792E0,2.049746125E0,-2.323601347E0,4.275008122E0,5.279798939E0
8.613904792E0,7.538873613E-1,-1.837260939E0,3.954297991E0,4.424968533E0
8.623932792E0,-4.850271231E-1,-1.874786615E0,3.115819838E0,3.668570488E0
8.633960792E0,-1.346475770E0,-1.913347540E0,2.234700572E0,3.235395256E0
8.643988792E0,-1.963433620E0,-1.820754834E0,1.605105135E0,3.121951672E0
8.654016792E0,-2.404399635E0,-1.649343707E0,1.093847988E0,3.114157300E0
8.664045792E0,-2.744444461E0,-1.392658249E0,6.866913052E-1,3.153255040E0
8.674073792E0,-2.981794054E0,-1.112277242E0,3.608843029E-1,3.202888372E0
8.684101792E0,-3.103893857E0,-8.973160529E-1,1.146182907E-1,3.233028074E0
8.694129792E0,-3.013941461E0,-8.437271985E-1,-1.523573899E-1,3.133517431E0
8.704157792E0,-2.757484921E0,-8.286048371E-1,-3.434946835E-1,2.899706479E0
8.714185792E0,-2.465428194E0,-7.728086588E-1,-4.585829441E-1,2.624093695E0
8.724213792E0,-2.184846627E0,-6.905731255E-1,-5.272565916E-1,2.351264668E0
8.734241792E0,-2.000667520E0,-6.120245540E-1,-5.207085872E-1,2.156010671E0
8.744269792E0,-1.949931230E0,-5.974176246E-1,-4.538676032E-1,2.089290650E0
8.754297792E0,-1.924536188E0,-6.083229741E-1,-3.708231077E-1,2.052171083E0
8.764326792E0,-1.859964216E0,-5.916309276E-1,-2.457442944E-1,1.967202149E0
8.774354792E0,-1.745934740E0,-5.293650976E-1,-1.153398371E-1,1.828064222E0
8.784382792E0,-1.461502197E0,-3.872257170E-1,6.903193563E-2,1.513505149E0
8.794410792E0,-1.140748504E0,-1.977981493E-1,3.990511259E-1,1.224611391E0
8.804438792E0,-8.753357846E-1,-4.851697952E-2,7.925804338E-1,1.181841942E0
8.814466792E0,-6.639413971E-1,-2.201856762E-2,1.172999407E0,1.348046959E0
8.824494792E0,-4.461080557E-1,-5.425631404E-3,1.437095334E0,1.504754077E0
8.834522792E0,-1.634764552E-1,1.281104484E-1,1.558888451E0,1.572663359E0
8.844550792E0,5.570642352E-2,3.830066586E-1,1.473562956E0,1.523543597E0
8.854578792E0,7.443973303E-2,5.260713610E-1,1.174517490E0,1.289101891E0
8.864607792E0,8.752112389E-3,4.536930639E-1,5.815729858E-1,7.376592258E-1
8.874635792E0,-5.243490636E-2,3.163931313E-1,-1.147048295E-1,3.406042144E-1
8.884663792E0,8.802866220E-2,2.463996211E-1,-8.026893926E-1,8.442583015E-1
8.894691792E0,2.645379764E-1,2.786633876E-1,-1.458081429E0,1.507857778E0
8.904719792E0,5.151069546E-1,4.405371210E-1,-2.175622644E0,2.278758877E0
8.914747792E0,8.975230443E-1,5.318066025E-1,-3.068437511E0,3.240937308E0
8.924775792E0,1.568631374E0,5.433873054E-1,-3.967303076E0,4.300624123E0
8.934803792E0,1.929123913E0,6.642264488E-1,-4.651431108E0,5.079225059E0
8.944831792E0,1.794767177E0,7.207643464E-1,-5.121136479E0,5.474187547E0
8.954859792E0,1.257822041E0,7.370231143E-1,-5.417570432E0,5.610293107E0
8.964888792E0,7.348002952E-1,7.665252408E-1,-5.992027795E0,6.085383268E0
8.974916792E0,4.310462129E-1,9.334606165E-1,-7.003449923E0,7.078521059E0
8.984944792E0,2.605437434E-1,1.097914726E0,-8.216672326E0,8.293793095E0
8.994972792E0,4.181706440E-1,1.160839830E0,-8.930109819E0,9.014947431E0
9.005000792E0,1.075804065E0,1.018157535E0,-8.436704805E0,8.565744984E0
9.015028792E0,2.019754001E0,2.969540629E-1,-6.797919123E0,7.097837160E0
9.025056792E0,2.442191359E0,-6.788184679E-1,-4.373908220E0,5.055310699E0
9.035084792E0,2.517970689E0,-1.425257353E0,-1.890377631E0,3.456162974E0
9.045112792E0,2.624413987E0,-1.699997552E0,1.572994566E-1,3.130859877E0
9.055140792E0,2.222957609E0,-1.720894039E0,1.909986561E0,3.398685847E0
9.065169792E0,1.631221724E0,-1.770093681E0,3.349043051E0,4.124343015E0
9.075197792E0,1.118527915E0,-1.762848688E0,4.429868120E0,4.897190190E0
9.085225792E0,8.550757670E-1,-1.879127880E0,5.050054218E0,5.455760603E0
9.095253792E0,1.124378639E0,-1.975228331E0,5.206829764E0,5.681270146E0
9.105281792E0,1.643923046E0,-2.048765547E0,5.169923308E0,5.798968034E0
9.115309792E0,2.137177786E0,-2.118548557E0,5.083131917E0,5.907114944E0
9.125337792E0,2.646900625E0,-2.148365849E0,4.887149912E0,5.958673762E0
9.135365792E0,2.995137400E0,-2.207885534E0,4.693175257E0,5.989282142E0
9.145393792E0,3.300127584E0,-2.263905076E0,4.705872486E0,6.177486877E0
9.155422792E0,3.562483964E0,-2.061008154E0,4.601600551E0,6.173635415E0
9.165450792E0,3.430158550E0,-1.860446903E0,4.508009140E0,5.962331488E0
9.175478792E0,2.806589254E0,-1.727491452E0,4.373954413E0,5.476554314E0
9.185506792E0,1.925933087E0,-1.477556897E0,4.093179595E0,4.758835135E0
9.195534792E0,1.091091025E0,-1.330212032E0,3.691824374E0,4.073022328E0
9.205562792E0,3.309746253E-1,-1.076347271E0,3.154763756E0,3.349716706E0
9.215590792E0,-3.144404536E-1,-8.645655057E-1,2.470416746E0,2.636153488E0
9.225618792E0,-9.121071696E-1,-7.848781890E-1,2.050067722E0,2.377130818E0
9.235646792E0,-1.527549421E0,-6.163503242E-1,1.713750203E0,2.377022237E0
9.245674208E0,-2.049314016E0,-3.833545679E-1,1.340620661E0,2.478691674E0
9.255703208E0,-2.502938082E0,-2.027317375E-1,1.097912972E0,2.740659062E0
9.265731208E0,-2.747618330E0,-8.014720023E-2,7.571454298E-1,2.851157530E0
9.275759208E0,-2.950899705E0,-1.681214833E-1,3.977319941E-1,2.982325375E0
9.285787208E0,-2.959467630E0,-5.415226284E-1,1.108433282E-1,3.010644724E0
9.295815208E0,-2.780385541E0,-8.240103874E-1,-8.294801652E-2,2.901106211E0
9.305843208E0,-2.669949764E0,-1.035499207E0,-3.229499066E-1,2.881872133E0
9.315871208E0,-2.409600148E0,-1.158321726E0,-5.252074349E-1,2.724651344E0
9.325899208E0,-2.212436129E0,-1.207117618E0,-5.302456883E-1,2.575493557E0
9.335927208E0,-1.980117481E0,-1.153855038E0,-2.731348452E-1,2.307996822E0
9.345955208E0,-1.677610025E0,-1.024379850E0,-5.863821745E-2,1.966511610E0
9.355983208E0,-1.431042296E0,-8.190352839E-1,-2.238752693E-2,1.649000319E0
9.366012208E0,-1.156226669E0,-5.086451966E-1,-1.177535677E-1,1.268639408E0
9.376040208E0,-8.665836722E-1,-3.816273004E-2,-2.892678979E-1,9.143848050E-1
9.386068208E0,-6.520411438E-1,3.844441965E-1,-6.534251797E-1,9.999597286E-1
9.396096208E0,-7.118634224E-1,5.389925382E-1,-9.345721722E-1,1.292550824E0
9.406124208E0,-8.672870922E-1,7.158854297E-1,-1.453556123E0,1.837798752E0
9.416152208E0,-7.945179087E-1,9.722375965E-1,-2.156267191E0,2.495193951E0
9.426180208E0,-5.595107102E-1,1.190968778E0,-2.830810175E0,3.121689464E0
9.436208208E0,-8.684050798E-2,1.290085223E0,-3.555145708E0,3.782977949E0
9.446236208E0,1.586261898E-1,1.335509318E0,-3.817644761E0,4.047611508E0
9.456265208E0,6.253415877E-1,1.375972342E0,-3.461569208E0,3.777143546E0
9.466293208E0,1.158509422E0,1.121823991E0,-2.867270781E0,3.289661818E0
9.476321208E0,1.515025270E0,8.307665527E-1,-2.383914499E0,2.944235550E0
9.486349208E0,1.556682588E0,5.894797370E-1,-2.264610250E0,2.810552726E0
9.496377208E0,1.418343898E0,2.721656692E-1,-2.342312729E0,2.751763523E0
9.506405208E0,1.100978667E0,-3.729091018E-2,-2.855153303E0,3.060301459E0
9.516433208E0,7.288057297E-1,-8.627888292E-2,-3.465146534E0,3.542011059E0
9.526461208E0,3.642593157E-1,3.631731954E-1,-3.616896983E0,3.653289396E0
9.536489208E0,6.272390091E-1,3.630384171E-1,-3.893161551E0,3.960041986E0
9.546518208E0,1.403737553E0,1.525076634E-1,-3.918761830E0,4.165384975E0
9.556546208E0,2.706939250E0,-1.056276119E-1,-3.705856522E0,4.590430248E0
9.566574208E0,3.665078040E0,-2.315652350E-1,-2.306409802E0,4.336582257E0
9.576602208E0,3.855794919E0,3.305986494E-2,-1.742752393E-1,3.859872961E0
9.586630208E0,3.744053459E0,2.072782400E-1,1.744252350E0,4.135615653E0
9.596658208E0,3.627071723E0,6.232702115E-1,3.073850863E0,4.795067692E0
9.606686208E0,3.434170910E0,9.557083949E-1,3.895558909E0,5.280368130E0
9.616714208E0,2.849302579E0,9.597260168E-1,4.476627134E0,5.392568007E0
9.626742208E0,1.969307733E0,8.765704241E-1,4.919159617E0,5.370724346E0
9.636770208E0,1.466448357E0,7.667076740E-1,4.996501908E0,5.263396504E0
9.646799208E0,1.344148579E0,6.024336585E-1,4.693729573E0,4.919426697E0
9.656827208E0,1.208316590E0,4.049573985E-1,4.205546416E0,4.394387344E0
9.666855208E0,8.901672471E-1,2.680764189E-1,3.552484056E0,3.672111880E0
9.676883208E0,6.885195833E-1,1.486485010E-1,2.858537379E0,2.944043400E0
9.686911208E0,5.138053644E-1,3.195561826E-2,2.271401206E0,2.329008492E0
9.696939208E0,3.197696060E-1,-1.541618407E-1,1.812913133E0,1.847342010E0
9.706967208E0,1.932066232E-1,-3.602992889E-1,1.568563692E0,1.620967746E0
9.716995208E0,-3.095106661E-2,-3.388341603E-1,1.366187904E0,1.407919012E0
9.727023208E0,-4.542269146E-1,-3.648416984E-1,1.119904058E0,1.262385303E0
9.737051208E0,-7.842694938E-1,-3.548008597E-1,8.085529804E-1,1.180982731E0
9.747080208E0,-1.141400469E0,-2.081351495E-1,4.624153554E-1,1.248976874E0
9.757108208E0,-1.500626501E0,-5.843999684E-3,1.732424748E-1,1.510604847E0
9.767136208E0,-1.776238520E0,1.894892558E-1,3.415256336E-2,1.786643740E0
9.777164208E0,-1.989930278E0,3.167743698E-1,3.337239861E-2,2.015262323E0
9.787192208E0,-2.150346885E0,3.345247623E-1,4.290584520E-2,2.176634893E0
9.797220208E0,-2.270872033E0,2.300929061E-1,-3.015555292E-3,2.282501179E0
9.807248208E0,-2.370221490E0,5.815757632E-2,-3.430327535E-2,2.371183023E0
9.817276208E0,-2.423283218E0,5.156922609E-2,-6.009329706E-2,2.424576693E0
9.827304208E0,-2.445464045E0,1.067517391E-1,-5.668378562E-2,2.448449179E0
9.837333208E0,-2.410290120E0,1.201895177E-1,1.291328341E-2,2.413319443E0
9.847361208E0,-2.432332368E0,-1.365783861E-1,1.116002503E-1,2.438718726E0
9.857389208E0,-2.411384134E0,-4.089905155E-1,2.830768660E-1,2.462149304E0
9.867417208E0,-2.335458038E0,-6.009373561E-1,6.411460268E-1,2.495307232E0
9.877445208E0,-2.194589258E0,-6.659171712E-1,1.097054893E0,2.542281874E0
9.887473208E0,-2.000194480E0,-6.358852869E-1,1.487943014E0,2.572761643E0
9.897501208E0,-1.789881828E0,-6.391889638E-1,1.741332104E0,2.577688303E0
9.907529208E0,-1.670491624E0,-6.700447208E-1,1.843958632E0,2.576758746E0
9.917557208E0,-1.681320083E0,-7.314252824E-1,1.750214024E0,2.534772040E0
9.927585208E0,-1.739913862E0,-7.986711860E-1,1.420328151E0,2.383801159E0
9.937614208E0,-1.578499720E0,-7.091093838E-1,8.702574778E-1,1.936968136E0
9.947642208E0,-1.391942550E0,-4.964756790E-1,2.323551938E-1,1.495988335E0
9.957670208E0,-1.358584185E0,-1.750676832E-1,-5.436203170E-1,1.473744459E0
9.967698208E0,-1.364157751E0,9.883080840E-2,-1.374832720E0,1.939293403E0
9.977726208E0,-1.443579311E0,4.193275157E-1,-2.350146537E0,2.789793099E0
9.987754208E0,-1.432472525E0,7.305850375E-1,-3.286406215E0,3.658715327E0
9.997782208E0,-1.118083527E0,9.112955761E-1,-3.742254270E0,4.010615592E0
1.000781021E1,-2.610337400E-1,1.090165996E0,-3.652719365E0,3.820858447E0
1.001783821E1,1.071286506E0,8.848945203E-1,-3.098407707E0,3.395706614E0
1.002786621E1,2.245126743E0,5.741229022E-1,-2.176041159E0,3.178893884E0
1.003789521E1,2.759273000E0,4.619943559E-1,-1.274804840E0,3.074435501E0
1.004792321E1,2.902581823E0,5.413551056E-1,-1.002681417E0,3.118239346E0
1.005795121E1,2.676945958E0,1.011844589E0,-1.679571619E0,3.318257066E0
1.006797921E1,2.235778214E0,1.548780954E0,-3.165076490E0,4.173144600E0
1.007800721E1,1.836372455E0,1.882891441E0,-4.716890395E0,5.400610981E0
1.008803521E1,1.431294896E0,1.964534359E0,-6.232082895E0,6.689309197E0
1.009806321E1,1.193913728E0,2.293272716E0,-7.809078126E0,8.225948633E0
1.010809121E1,1.758099872E0,2.618753298E0,-8.738268521E0,9.290108758E0
1.011811921E1,2.563408817E0,2.167466656E0,-7.744507324E0,8.440756492E0
1.012814821E1,3.147831005E0,1.296453425E0,-4.927621708E0,5.989247634E0
1.013817621E1,3.267583736E0,2.309080079E-1,-2.231472325E0,3.963570450E0
1.014820421E1,3.248198462E0,-5.285590589E-1,2.241208524E-2,3.290998363E0
1.015823221E1,3.548459417E0,-9.332381299E-1,2.600691541E0,4.497343008E0
1.016826021E1,3.259601701E0,-1.114492460E0,4.622148837E0,5.764664480E0
1.017828821E1,2.329131351E0,-1.292091987E0,5.973377516E0,6.540305307E0
1.018831621E1,9.982068354E-1,-1.375902468E0,6.784665824E0,6.994370224E0
1.019834421E1,-4.766767144E-2,-1.531523189E0,7.102690036E0,7.266088441E0
1.020837221E1,-8.871278644E-2,-1.752774813E0,7.198587881E0,7.409437022E0
1.021840021E1,3.222073102E-1,-1.824627153E0,7.161138219E0,7.396957644E0
1.022842921E1,7.977303690E-1,-1.890947734E0,6.726062690E0,7.032209922E0
1.023845796E1,1.287591970E0,-1.933719532E0,5.553717002E0,6.020044588E0
1.024848596E1,1.826408215E0,-1.611824463E0,4.227265606E0,4.878885074E0
1.025851396E1,2.148289250E0,-1.015194459E0,3.324027201E0,4.085942158E0
1.026854196E1,2.168752166E0,-6.879158583E-1,2.669521163E0,3.507571443E0
1.027856996E1,2.118087212E0,-3.952267545E-1,1.848706279E0,2.839051343E0
1.028859796E1,1.736309638E0,3.404745966E-2,1.080060399E0,2.045106563E0
1.029862596E1,8.683694118E-1,2.663915437E-1,2.213627207E-1,9.348964350E-1
1.030865396E1,1.920167148E-2,2.859534037E-1,-6.022782688E-1,6.669911291E-1
1.031868196E1,-5.659935182E-1,2.524079275E-1,-1.126006358E0,1.285281581E0
1.032871096E1,-1.037069770E0,1.117853147E-1,-1.278253089E0,1.649830483E0
1.033873896E1,-1.408884857E0,-2.359912848E-1,-1.157332085E0,1.838495576E0
1.034876696E1,-1.665746024E0,-6.898659047E-1,-7.611284070E-1,1.957023565E0
1.035879496E1,-1.889223098E0,-1.202929842E0,-3.032656936E-1,2.260127032E0
1.036882296E1,-2.104832159E0,-1.594513781E0,1.770852649E-1,2.646535812E0
1.037885096E1,-2.230984082E0,-1.850604285E0,5.412766068E-1,2.948729652E0
1.038887896E1,-2.353996636E0,-2.020339015E0,6.299182034E-1,3.165417325E0
1.039890696E1,-2.667778693E0,-2.001215989E0,6.613798781E-1,3.399901753E0
1.040893496E1,-2.634923188E0,-2.019928541E0,5.743930435E-1,3.369400375E0
1.041896296E1,-2.447963145E0,-2.033140909E0,3.144049318E-1,3.197661017E0
1.042899196E1,-2.527011654E0,-1.973327986E0,1.385626388E-1,3.209207199E0
1.043901996E1,-2.569356020E0,-2.042546156E0,1.268261075E-2,3.282338496E0
1.044904796E1,-2.444247825E0,-2.012822420E0,-8.453071162E-2,3.167482749E0
1.045907596E1,-2.247141693E0,-1.785449054E0,-1.173115182E-1,2.872496493E0
1.046910396E1,-2.178405919E0,-1.246732796E0,-2.816438596E-1,2.525691643E0
1.047913196E1,-2.012771257E0,-6.999362719E-1,-6.725629704E-1,2.234614030E0
1.048915996E1,-1.719607067E0,-3.893888944E-1,-1.030050333E0,2.041978419E0
1.049918796E1,-1.467321931E0,-1.007217979E-1,-1.211183041E0,1.905293386E0
1.050921596E1,-1.266901013E0,1.165440711E-1,-1.331467284E0,1.841582424E0
1.051924396E1,-1.209970182E0,2.491138986E-1,-1.369554731E0,1.844387632E0
1.052927296E1,-1.132907973E0,2.664514777E-1,-1.322255434E0,1.761486956E0
1.053930096E1,-9.036526805E-1,4.112966573E-1,-1.216754268E0,1.570427985E0
1.054932896E1,-7.300488478E-1,5.805767664E-1,-1.082558037E0,1.428976069E0
1.055935696E1,-4.946849692E-1,6.059887657E-1,-1.287980225E0,1.506926894E0
1.056938496E1,-5.522046143E-1,6.944410586E-1,-1.121263243E0,1.429828514E0
1.057941296E1,-3.435590029E-2,9.142300013E-1,-1.070570368E0,1.408232132E0
1.058944096E1,7.049292094E-1,1.228404699E0,-1.331529264E0,1.943932477E0
1.059946896E1,1.214325773E0,1.473891570E0,-1.292048718E0,2.305717531E0
1.060949696E1,1.768608488E0,1.646902787E0,-9.385623121E-1,2.592520779E0
1.061952496E1,2.098620661E0,1.796905211E0,-6.281790952E-1,2.833317136E0
1.062955396E1,1.950473267E0,1.934432308E0,-7.543877368E-1,2.848767308E0
1.063958196E1,1.430359926E0,2.217043443E0,-1.334686614E0,2.956788715E0
1.064960996E1,1.029786478E0,2.330822951E0,-2.107032466E0,3.306475711E0
1.065963796E1,8.177167368E-1,2.328779349E0,-2.917870538E0,3.821759071E0
1.066966596E1,1.845501128E0,2.180393095E0,-3.592615836E0,4.589866774E0
1.067969396E1,2.950365270E0,1.981270844E0,-3.400952293E0,4.919000496E0
1.068972196E1,3.449658430E0,1.912877132E0,-2.218153975E0,4.525422551E0
1.069974996E1,4.234894468E0,1.452715293E0,-2.848377550E-1,4.486183838E0
1.070977796E1,4.625521803E0,1.334420274E0,1.597768049E0,5.072375396E0
1.071980596E1,4.317585792E0,1.312563966E0,3.216522925E0,5.541695676E0
1.072983396E1,3.093285254E0,1.206141718E0,4.449717078E0,5.551862172E0
1.073986296E1,1.639592013E0,1.076158698E0,5.099480731E0,5.463614485E0
1.074989096E1,6.913999218E-1,7.864864656E-1,5.206354970E0,5.310623964E0
1.075991896E1,3.179224706E-1,4.616379681E-1,4.999061819E0,5.030387995E0
1.076994696E1,2.514717883E-1,1.640012428E-1,4.531838591E0,4.541772284E0
1.077997496E1,1.862542838E-1,-2.570848230E-1,3.774964764E0,3.788290147E0
1.079000296E1,5.000351715E-1,-5.268908483E-1,2.926239366E0,3.015049911E0
1.080003096E1,9.311544746E-1,-5.968062982E-1,2.094470308E0,2.368550672E0
1.081005896E1,1.185521804E0,-6.553667477E-1,1.385166504E0,1.937434842E0
1.082008696E1,1.411497393E0,-5.295633182E-1,9.325078127E-1,1.772662692E0
1.083011596E1,1.397927175E0,-3.404640716E-1,7.121363412E-1,1.605382926E0
1.084014396E1,1.190852711E0,-8.736324906E-2,6.856503546E-1,1.376909193E0
1.085017196E1,6.216970181E-1,1.172594780E-1,7.601766264E-1,9.890022603E-1
1.086019996E1,-1.376042801E-1,2.145711797E-1,8.367576098E-1,8.747222569E-1
1.087022796E1,-8.072578222E-1,2.194620833E-1,8.674451132E-1,1.205109880E0
1.088025596E1,-1.348580768E0,1.634703156E-1,9.186187752E-1,1.639894230E0
1.089028396E1,-1.678187730E0,1.327110377E-1,9.508883889E-1,1.933420545E0
1.090031196E1,-1.973275069E0,1.630838147E-1,9.709979868E-1,2.205277288E0
1.091033996E1,-2.329740046E0,6.414015502E-2,9.716752405E-1,2.525065428E0
1.092036796E1,-2.646209484E0,-1.496042284E-1,9.426718815E-1,2.813083065E0
1.093039596E1,-2.905995428E0,-3.581121379E-1,8.892784703E-1,3.060044106E0
1.094042496E1,-3.100153393E0,-4.263365731E-1,7.938446018E-1,3.228452135E0
1.095045296E1,-3.295667328E0,-4.801794890E-1,6.548577476E-1,3.394235429E0
1.096048096E1,-3.466273293E0,-5.229334527E-1,4.974202967E-1,3.540612502E0
1.097050896E1,-3.473550153E0,-4.870675090E-1,3.594283462E-1,3.525900475E0
1.098053696E1,-3.458082513E0,-4.238363037E-1,2.912588748E-1,3.496112643E0
1.099056496E1,-3.272912888E0,-3.405070487E-1,3.388660276E-1,3.307980352E0
1.100059296E1,-2.910465624E0,-1.629525447E-1,4.416516003E-1,2.948291000E0
1.101062096E1,-2.564118669E0,1.557669014E-2,6.002979630E-1,2.633496692E0
1.102064896E1,-2.351679969E0,1.892965901E-1,9.309144464E-1,2.536303133E0
1.103067696E1,-2.065952852E0,4.215789860E-1,1.207666964E0,2.429886731E0
1.104070496E1,-1.904929889E0,5.230047888E-1,1.316943823E0,2.374159414E0
1.105073396E1,-1.875870981E0,5.738498372E-1,1.285864995E0,2.345558432E0
1.106076196E1,-1.910371308E0,6.331803650E-1,1.061136324E0,2.275180478E0
1.107078996E1,-1.765170910E0,7.542393637E-1,7.296012434E-1,2.053539221E0
1.108081796E1,-1.420237811E0,9.275251079E-1,3.340172240E-1,1.728856782E0
1.109084596E1,-1.136248487E0,9.989701894E-1,-1.655450539E-1,1.521974779E0
1.110087396E1,-8.813736194E-1,9.978826073E-1,-7.687813890E-1,1.537404950E0
1.111090196E1,-7.196150762E-1,9.658141378E-1,-1.375451355E0,1.828253056E0
1.112092996E1,-4.283266729E-1,6.932400405E-1,-1.687274010E0,1.873750004E0
1.113095796E1,4.963502562E-1,1.798878354E-1,-1.362711149E0,1.461405107E0
1.114098596E1,1.461541958E0,-2.562881398E-1,-9.220404196E-1,1.746982267E0
1.115101496E1,1.545434300E0,-2.770685595E-1,-8.019174139E-1,1.763010408E0
1.116104296E1,1.663552734E0,-1.558888158E-1,-7.257469051E-1,1.821652434E0
1.117107096E1,2.168692524E0,3.061017394E-4,-1.002798508E0,2.389316263E0
1.118109896E1,2.447697097E0,4.346402040E-1,-2.163607640E0,3.295653380E0
1.119112696E1,1.844100135E0,1.354313671E0,-3.767377417E0,4.407720888E0
1.120115496E1,1.322681111E0,1.843573593E0,-5.624055498E0,6.064507330E0
1.121118296E1,1.085198202E0,1.974411183E0,-7.541814762E0,7.871145061E0
1.122121096E1,9.013839608E-1,2.211160267E0,-8.416755860E0,8.748914331E0
1.123123896E1,2.134414977E0,2.522907493E0,-7.908224684E0,8.570928022E0
1.124126667E1,3.472587116E0,2.045501631E0,-5.460819948E0,6.787009113E0
1.125129467E1,4.181082543E0,1.266665078E0,-2.839105035E0,5.210221593E0
1.126132367E1,4.004287300E0,2.066584352E-1,-1.043299978E0,4.143126758E0
1.127135167E1,3.637344112E0,-9.544766790E-1,1.432404405E0,4.024062661E0
1.128137967E1,3.575831403E0,-1.381876568E0,4.194580840E0,5.682487263E0
1.129140767E1,3.048161121E0,-1.392365304E0,6.269004554E0,7.108472793E0
1.130143567E1,2.385665740E0,-1.146604783E0,7.188502604E0,7.660331144E0
1.131146367E1,2.081545038E0,-9.969458833E-1,7.638520693E0,7.979582020E0
1.132149167E1,1.310788459E0,-1.447118339E0,7.698642933E0,7.942381311E0
1.133151967E1,6.199527937E-1,-1.934419736E0,7.399135684E0,7.672908839E0
1.134154767E1,7.452445918E-1,-1.888358295E0,6.601660838E0,6.906751217E0
1.135157567E1,1.329507735E0,-2.129974309E0,5.435848829E0,5.987723596E0
1.136160467E1,1.984678309E0,-1.835263238E0,3.760595816E0,4.631330266E0
1.137163267E1,3.043799098E0,-1.053031791E0,2.194864369E0,3.897565715E0
1.138166067E1,3.525103299E0,-7.244948700E-1,1.169599836E0,3.784073184E0
1.139168867E1,2.929755004E0,-8.699969843E-1,5.829593606E-1,3.111302099E0
1.140171667E1,1.744009252E0,-1.139232029E0,4.326976128E-1,2.127591387E0
1.141174467E1,8.176173341E-1,-1.024368448E0,5.933719361E-1,1.438721334E0
1.142177267E1,2.859206593E-1,-8.599456206E-1,9.235033929E-1,1.293876196E0
1.143180067E1,-2.358784336E-1,-1.179580741E0,1.119553371E0,1.643304326E0
1.144182867E1,-5.892315227E-1,-1.574219850E0,1.032188952E0,1.972504995E0
1.145185667E1,-8.848205531E-1,-1.873543205E0,7.286786990E-1,2.196370688E0
1.146188467E1,-1.150133286E0,-2.074098901E0,1.401660915E-1,2.375781841E0
1.147191367E1,-1.387432593E0,-2.114409021E0,-7.269561093E-1,2.631379845E0
1.148194167E1,-1.651810355E0,-2.057809143E0,-1.651648972E0,3.113037142E0
1.149196967E1,-1.836730304E0,-1.905533906E0,-2.378074300E0,3.558071817E0
1.150199767E1,-1.946265610E0,-1.734643474E0,-2.614519329E0,3.692241749E0
1.151202567E1,-1.911064788E0,-1.529426670E0,-2.233767503E0,3.313763996E0
1.152205367E1,-1.978686082E0,-1.238537047E0,-1.396851872E0,2.720361700E0
1.153208167E1,-2.082979360E0,-9.986997557E-1,-6.265221405E-1,2.393477430E0
1.154210967E1,-2.239367820E0,-7.823668098E-1,-1.422708698E-1,2.376364252E0
1.155213767E1,-2.236793291E0,-4.205887601E-1,1.382211614E-1,2.280185129E0
1.156216567E1,-2.126354590E0,-1.139441067E-1,2.342021099E-1,2.142245955E0
1.157219467E1,-1.795322077E0,1.151591581E-1,3.237276594E-1,1.827906614E0
1.158222267E1,-1.578728930E0,2.884843710E-1,3.138856260E-1,1.635277485E0
1.159225067E1,-1.723320633E0,4.761080727E-1,2.254429078E-1,1.802037016E0
1.160227867E1,-1.861987937E0,7.975613844E-1,4.497203194E-2,2.026110985E0
1.161230667E1,-1.801340032E0,1.035140188E0,-1.967810261E-1,2.086878983E0
1.162233467E1,-1.728572602E0,1.070274353E0,-5.233679008E-1,2.099372380E0
1.163236267E1,-1.724603512E0,9.135575715E-1,-9.061465911E-1,2.151731014E0
1.164239067E1,-1.796106774E0,6.690249664E-1,-1.264055758E0,2.295959692E0
1.165241867E1,-1.740172893E0,4.422164413E-1,-1.585695888E0,2.395451634E0
1.166244667E1,-1.532267540E0,1.776275942E-1,-1.862508924E0,2.418333076E0
1.167247467E1,-1.339094245E0,9.624429256E-2,-2.104768424E0,2.496494839E0
1.168250367E1,-1.130453897E0,1.657568693E-1,-2.229854400E0,2.505524296E0
1.169253167E1,-9.542194015E-1,3.816270080E-1,-2.217502742E0,2.444072881E0
1.170255967E1,-6.891797340E-1,6.305461943E-1,-1.975699325E0,2.185393564E0
1.171258767E1,-3.876470089E-1,8.741473380E-1,-1.466360064E0,1.750604355E0
1.172261567E1,1.800942421E-2,9.758812889E-1,-7.322877467E-1,1.220210627E0
1.173264367E1,5.219405955E-1,9.899567065E-1,-1.541548240E-1,1.129690212E0
1.174267167E1,7.451469433E-1,1.026835096E0,2.175724825E-1,1.287234270E0
1.175269967E1,7.680803078E-1,8.309796837E-1,1.371756792E-3,1.131581405E0
1.176272767E1,6.113497853E-1,5.890458736E-1,-4.615885957E-1,9.663268768E-1
1.177275567E1,3.252659887E-1,5.926138446E-1,-8.191481352E-1,1.062070054E0
1.178278467E1,1.079606509E-1,5.882833967E-1,-1.425892653E0,1.546254415E0
1.179281267E1,-9.062599540E-3,6.465313125E-1,-2.113622278E0,2.210313101E0
1.180284067E1,-3.501154858E-1,7.731150529E-1,-3.065778197E0,3.181082157E0
1.181286867E1,6.138670117E-1,1.048513940E0,-3.864589716E0,4.051082308E0
1.182289667E1,1.446863692E0,9.834323832E-1,-4.033257329E0,4.396330115E0
1.183292467E1,2.404684979E0,1.404548562E0,-3.236603433E0,4.269762088E0
1.184295267E1,3.062854589E0,2.181236264E0,-1.286133674E0,3.974041985E0
1.185298067E1,4.024638534E0,2.127528711E0,9.341464949E-1,4.647227498E0
1.186300867E1,4.254121867E0,1.861892627E0,2.615601064E0,5.329687228E0
1.187303667E1,3.850589728E0,1.999331139E0,3.816948942E0,5.778707942E0
1.188306467E1,3.058720608E0,2.196064803E0,4.647812558E0,5.981691563E0
1.189309367E1,2.246897864E0,2.239996103E0,5.292492642E0,6.170624841E0
1.190312167E1,1.755679125E0,2.116157046E0,5.353964421E0,6.018759411E0
1.191314967E1,1.701076071E0,1.559912883E0,5.044680626E0,5.547593228E0
1.192317767E1,1.747370231E0,8.030077735E-1,4.330560179E0,4.738341025E0
1.193320567E1,1.862805378E0,1.957296968E-1,2.961778450E0,3.504352376E0
1.194323367E1,2.418069255E0,3.053509569E-1,1.479830879E0,2.851350129E0
1.195326167E1,2.573369549E0,8.610934290E-1,4.687771992E-1,2.753809142E0
1.196328967E1,2.320124885E0,1.324840488E0,-4.968890771E-3,2.671742220E0
1.197331767E1,1.995555300E0,1.473259193E0,-2.872362097E-1,2.497045904E0
1.198334567E1,1.935300912E0,1.245590250E0,-4.107353246E-1,2.337859747E0
1.199337367E1,1.710112942E0,7.957192191E-1,-3.105257428E-1,1.911565220E0
1.200340267E1,1.150008155E0,2.747273344E-1,8.379176974E-2,1.185333255E0
1.201343067E1,4.174976295E-1,-3.559931070E-2,6.580797096E-1,7.801541423E-1
1.202345867E1,-4.585521001E-1,-3.232071841E-1,1.419115731E0,1.525982427E0
1.203348667E1,-1.162089087E0,-5.631520638E-1,2.098084910E0,2.463645994E0
1.204351467E1,-1.821168525E0,-7.925050047E-1,2.441743462E0,3.147511733E0
1.205354267E1,-2.162190421E0,-9.514475289E-1,2.693312899E0,3.582492734E0
1.206357067E1,-2.689110505E0,-1.173912742E0,2.817666804E0,4.068001063E0
1.207359867E1,-3.243484436E0,-1.521059012E0,2.695957010E0,4.483524953E0
1.208362667E1,-3.767261642E0,-1.822324812E0,2.410298160E0,4.829354534E0
1.209365467E1,-4.096576243E0,-2.143580780E0,2.066162767E0,5.064178517E0
1.210368267E1,-4.320417598E0,-2.430699534E0,1.736708564E0,5.252662666E0
1.211371167E1,-4.641601061E0,-2.601427706E0,1.364248967E0,5.493001162E0
1.212373967E1,-4.840972989E0,-2.776771962E0,9.607944493E-1,5.662915149E0
1.213376767E1,-4.730097501E0,-2.914266022E0,4.109658511E-1,5.570965962E0
1.214379567E1,-4.291305481E0,-2.866336980E0,-2.425846052E-1,5.166240191E0
1.215382367E1,-3.813875645E0,-2.515503456E0,-7.800806947E-1,4.634860404E0
1.216385167E1,-3.385488746E0,-2.056981177E0,-1.162550579E0,4.128465752E0
1.217387967E1,-2.976253232E0,-1.686982234E0,-1.378152769E0,3.688264825E0
1.218390767E1,-2.719500239E0,-1.291655785E0,-1.922095560E0,3.571905312E0
1.219393567E1,-2.414474387E0,-7.827077025E-1,-2.307563896E0,3.430330749E0
1.220396367E1,-1.768513178E0,-4.371007124E-1,-2.311826516E0,2.943337856E0
1.221399167E1,-1.377180669E0,1.668766111E-2,-2.296925472E0,2.678203073E0
1.222402067E1,-1.038650272E0,5.327573597E-1,-2.637014737E0,2.883829315E0
1.223404867E1,-7.262534201E-1,9.954039726E-1,-3.267193726E0,3.491823012E0
1.224407654E1,-5.332684064E-1,1.379101187E0,-4.085615637E0,4.344945387E0
1.225410454E1,-6.915917104E-1,1.664035714E0,-4.808177125E0,5.134771779E0
1.226413254E1,-7.537850350E-1,1.784384568E0,-5.117825786E0,5.472144090E0
1.227416054E1,-4.948334885E-1,1.791333399E0,-4.556583130E0,4.920994346E0
1.228418854E1,2.720235819E-1,1.859348212E0,-2.975412987E0,3.519127029E0
1.229421654E1,1.137738943E0,1.513754378E0,-8.219290709E-1,2.064332729E0
1.230424454E1,1.684751229E0,9.524351236E-1,1.165412060E0,2.259138030E0
1.231427254E1,2.431523699E0,5.633795205E-1,2.316837580E0,3.405501483E0
1.232430154E1,2.790176119E0,7.698870975E-1,1.488691750E0,3.254844396E0
1.233432954E1,2.177377979E0,1.717232805E0,-9.235781642E-1,2.922817133E0
1.234435754E1,1.737362137E0,2.338915789E0,-4.069434053E0,5.004922354E0
1.235438554E1,1.460040978E0,2.645404907E0,-7.428446606E0,8.019457947E0
1.236441354E1,2.682061102E0,2.931350124E0,-1.021989683E1,1.096506072E1
1.237444154E1,5.002487703E0,2.500430504E0,-1.025966024E1,1.168493321E1
1.238446954E1,6.115338557E0,2.010746366E0,-6.814952062E0,9.374648699E0
1.239449754E1,5.754924955E0,1.125208359E0,-2.899009759E0,6.541369327E0
1.240452554E1,4.819278064E0,-3.932252526E-3,1.080097675E-1,4.820489875E0
1.241455354E1,3.883230640E0,-9.713523281E-1,2.724132403E0,4.841890426E0
1.242458154E1,2.867771595E0,-1.839509486E0,4.821473694E0,5.903771477E0
1.243461054E1,1.690039451E0,-2.010813609E0,6.023509204E0,6.571321621E0
1.244463854E1,8.442356139E-1,-1.588913318E0,6.579705713E0,6.821283352E0
1.245466654E1,2.205470341E-1,-1.273894575E0,6.600168629E0,6.725598435E0
1.246469454E1,-2.080567968E-1,-1.510580509E0,6.752433633E0,6.922463511E0
1.247472254E1,1.430357587E-1,-1.851746539E0,6.921332796E0,7.166189513E0
1.248475054E1,5.820938265E-1,-1.905386264E0,6.962952107E0,7.242377516E0
1.249477854E1,1.409553194E0,-1.802179399E0,6.974950594E0,7.340614864E0
1.250480654E1,2.421940112E0,-1.443955872E0,6.833646780E0,7.392532096E0
1.251483454E1,2.824847769E0,-1.139014513E0,6.678060558E0,7.339864562E0
1.252486254E1,3.143906354E0,-8.674382427E-1,6.351077242E0,7.139522281E0
1.253489054E1,3.204730845E0,-7.821033928E-1,5.790028714E0,6.663814074E0
1.254491854E1,3.118115455E0,-7.952876946E-1,4.931726453E0,5.888722469E0
1.255494754E1,2.637642728E0,-6.559611171E-1,4.093889447E0,4.913997859E0
1.256497554E1,1.894703693E0,-3.949694771E-1,3.229876796E0,3.765369449E0
1.257500354E1,1.363849602E0,1.157631755E-2,2.084911280E0,2.491400167E0
1.258503154E1,9.404451156E-1,5.156332040E-1,2.397172038E-1,1.098989970E0
1.259505954E1,1.941281444E-1,7.457059371E-1,-2.028108942E0,2.169559624E0
1.260508754E1,-4.483586490E-1,8.333250019E-1,-4.374628304E0,4.475804826E0
1.261511554E1,-1.388544733E0,5.054836071E-1,-6.160734000E0,6.335472640E0
1.262514354E1,-1.700209513E0,-5.114413351E-2,-6.105474304E0,6.337992157E0
1.263517154E1,-1.731880372E0,-8.591404590E-1,-4.438139591E0,4.840931210E0
1.264519954E1,-1.999313305E0,-1.611528302E0,-2.487258189E0,3.575014749E0
1.265522754E1,-2.387848506E0,-2.339536764E0,-9.256434739E-1,3.468727230E0
1.266525654E1,-2.571216604E0,-2.580213422E0,2.194612062E-1,3.649221746E0
1.267528454E1,-2.804215869E0,-2.533564044E0,1.067241987E0,3.927031813E0
1.268531254E1,-3.033488118E0,-2.337466557E0,1.607114239E0,4.153145343E0
1.269534054E1,-3.262435847E0,-2.005724485E0,1.681612444E0,4.182611478E0
1.270536854E1,-3.320657743E0,-1.610774888E0,1.479615701E0,3.976257815E0
1.271539654E1,-2.974478018E0,-1.033625759E0,8.985919154E-1,3.274655573E0
1.272542454E1,-2.471044444E0,-1.885004917E-1,1.691716433E-1,2.483991169E0
1.273545254E1,-2.331504151E0,3.708394799E-1,-4.417290759E-1,2.401782276E0
1.274548054E1,-2.395524146E0,6.242469889E-1,-1.022300287E0,2.678305082E0
1.275550854E1,-2.418473883E0,7.149586460E-1,-1.345991621E0,2.858649197E0
1.276553654E1,-2.446687868E0,6.663753006E-1,-1.294843687E0,2.847271981E0
1.277556554E1,-2.528113854E0,7.374996623E-1,-1.169220936E0,2.881378665E0
1.278559354E1,-2.661335061E0,7.448417187E-1,-1.099095279E0,2.974139191E0
1.279562154E1,-2.735118737E0,7.389754996E-1,-1.190605373E0,3.073190597E0
1.280564954E1,-2.624485908E0,6.838336247E-1,-1.352991908E0,3.030864862E0
1.281567754E1,-2.391105405E0,5.316077971E-1,-1.588936415E0,2.919710746E0
1.282570554E1,-2.118795310E0,1.890425286E-1,-1.829239436E0,2.805556550E0
1.283573354E1,-1.766492380E0,-1.354799867E-2,-1.829226573E0,2.542980285E0
1.284576154E1,-1.628791037E0,-1.040015012E-2,-1.596795073E0,2.280969730E0
1.285578954E1,-1.536502678E0,1.085175982E-1,-1.228330439E0,1.970130000E0
1.286581754E1,-1.312349081E0,3.616774777E-1,-5.464620638E-1,1.466864512E0
1.287584554E1,-1.004051127E0,6.006631216E-1,3.428035792E-1,1.219192005E0
1.288587454E1,-7.831520909E-1,7.069532230E-1,9.023926055E-1,1.388316416E0
1.289590254E1,-8.013310844E-1,8.830169794E-1,1.066059607E0,1.599479158E0
1.290593054E1,-9.153582215E-1,1.185751600E0,8.997028863E-1,1.747384564E0
1.291595854E1,-8.617649817E-1,1.531722579E0,3.412879443E-1,1.790332484E0
1.292598654E1,-6.028420866E-1,1.769628535E0,-4.167275147E-1,1.915376087E0
1.293601454E1,-3.488179886E-1,1.907806719E0,-1.362227000E0,2.370034360E0
1.294604254E1,-8.714105487E-2,2.175868812E0,-2.583690469E0,3.378972491E0
1.295607054E1,2.652203465E-1,2.615970900E0,-3.672698132E0,4.516896850E0
1.296609854E1,1.170469902E0,2.770856626E0,-4.353494128E0,5.291555287E0
1.297612654E1,2.499760705E0,3.247242149E0,-4.366576688E0,5.988353458E0
1.298615454E1,4.526815540E0,3.682672312E0,-2.963981681E0,6.545175452E0
1.299618354E1,5.710400746E0,3.655903174E0,-3.698445761E-1,6.790514687E0
1.300621154E1,6.167077644E0,3.186693354E0,1.988769021E0,7.221015401E0
1.301623954E1,5.741512027E0,2.685565338E0,3.528405222E0,7.254437604E0
1.302626754E1,5.912778143E0,2.700131045E0,4.713668579E0,8.029341473E0
1.303629554E1,5.870015700E0,1.989896657E0,5.814120412E0,8.498280367E0
1.304632354E1,4.094668881E0,4.315712929E-1,6.554299561E0,7.740246105E0
1.305635154E1,3.050647942E0,-1.148460689E0,6.687154148E0,7.439317537E0
1.306637954E1,3.173378659E0,-2.098999561E0,6.513986517E0,7.543749175E0
1.307640754E1,3.302140780E0,-2.717779988E0,6.495171347E0,7.776741774E0
1.308643554E1,3.372363501E0,-3.007926722E0,6.318050998E0,7.767768481E0
1.309646354E1,3.540993692E0,-2.869153876E0,5.474387827E0,7.123173617E0
1.310649254E1,3.707545783E0,-2.444381726E0,3.825968857E0,5.861649550E0
1.311652054E1,3.768356826E0,-1.473506823E0,1.635557435E0,4.364262096E0
1.312654854E1,3.297718531E0,-5.248861304E-1,-4.766895783E-1,3.373082554E0
1.313657654E1,2.492407832E0,-5.312283128E-2,-1.847496783E0,3.102928165E0
1.314660454E1,1.928971885E0,-1.591129705E-1,-2.503008249E0,3.164063806E0
1.315663254E1,1.300755222E0,-6.238584414E-1,-2.572595962E0,2.949476816E0
1.316666054E1,2.241454107E-1,-1.138725953E0,-1.897490476E0,2.224276976E0
1.317668854E1,-7.125381911E-1,-1.436940383E0,-9.184337108E-1,1.848250204E0
1.318671654E1,-1.506253862E0,-1.652366718E0,1.623187065E-2,2.235929324E0
1.319674454E1,-2.120398031E0,-1.920564174E0,7.527424765E-1,2.958255532E0
1.320677254E1,-2.558363255E0,-2.010332675E0,1.226041035E0,3.477044237E0
1.321680154E1,-2.828113439E0,-2.023368750E0,1.439927287E0,3.763726520E0
1.322682954E1,-2.933758593E0,-1.884956385E0,1.471858785E0,3.785018935E0
1.323685754E1,-2.834676354E0,-1.741624757E0,1.301096699E0,3.572324096E0
1.324688583E1,-2.650135889E0,-1.551702223E0,1.063352565E0,3.249879797E0
1.325691383E1,-2.347654161E0,-1.252357233E0,8.795801322E-1,2.802416798E0
1.326694183E1,-2.318061987E0,-1.044872294E0,6.596091950E-1,2.626833413E0
1.327696983E1,-2.385910154E0,-8.569293344E-1,4.842594568E-1,2.580969269E0
1.328699783E1,-2.439941935E0,-6.836301416E-1,3.022286899E-1,2.551863828E0
1.329702583E1,-2.421531976E0,-5.269586760E-1,1.611375690E-1,2.483438720E0
1.330705383E1,-2.380831847E0,-4.138527676E-1,1.009916469E-2,2.416554653E0
1.331708183E1,-2.325812472E0,-3.593643191E-1,-8.806959271E-2,2.355058942E0
1.332710983E1,-2.290169014E0,-4.091890284E-1,-1.979212332E-1,2.334841020E0
1.333713883E1,-2.239276019E0,-5.334186798E-1,-4.385867091E-1,2.343341818E0
1.334716683E1,-2.162554702E0,-5.971729186E-1,-8.061507250E-1,2.383933163E0
1.335719483E1,-2.086105866E0,-5.402549520E-1,-1.294262474E0,2.513727998E0
1.336722283E1,-1.989527990E0,-4.445345700E-1,-1.850888314E0,2.753474197E0
1.337725083E1,-1.787655793E0,-2.264600310E-1,-2.259285775E0,2.889873629E0
1.338727883E1,-1.589839810E0,1.568840119E-1,-2.501496159E0,2.968111562E0
1.339730683E1,-1.368405168E0,5.870586973E-1,-2.683035833E0,3.068526014E0
1.340733483E1,-1.073100897E0,1.084914904E0,-2.703789940E0,3.104684513E0
1.341736283E1,-8.455658555E-1,1.271712102E0,-2.525050790E0,2.950951504E0
1.342739083E1,-3.003398931E-1,1.261012282E0,-2.080422957E0,2.451227388E0
1.343741883E1,3.326896137E-1,1.210633549E0,-1.221111467E0,1.751407772E0
1.344744783E1,7.581400412E-1,1.162068914E0,-5.431209648E-1,1.490020425E0
1.345747583E1,1.036031889E0,1.265624273E0,-5.036602990E-1,1.711385571E0
1.346750383E1,1.268847551E0,1.282689080E0,-3.941829535E-1,1.846793324E0
1.347753183E1,1.466130268E0,1.446271662E0,-1.502360201E-1,2.064899645E0
1.348755983E1,1.602325369E0,1.854370769E0,-3.672016346E-1,2.478098985E0
1.349758783E1,1.542537589E0,2.473052378E0,-1.065219947E0,3.103240857E0
1.350761583E1,1.596862900E0,3.091777549E0,-2.372640044E0,4.211707530E0
1.351764383E1,1.013528879E0,3.463624504E0,-3.948107836E0,5.348971021E0
1.352767183E1,7.015647215E-1,3.827263723E0,-5.732033690E0,6.927939873E0
1.353769983E1,1.171322426E0,4.056539773E0,-6.942337164E0,8.125488074E0
1.354772783E1,1.790746046E0,3.630260210E0,-6.404676329E0,7.576637742E0
1.355775683E1,2.136196039E0,2.038239681E0,-4.850571778E0,5.678538640E0
1.356778483E1,2.318868903E0,-2.667324364E-1,-2.827513515E0,3.666487673E0
1.357781283E1,2.320602602E0,-1.949529234E0,-2.378983542E-2,3.030911848E0
1.358784083E1,1.943720902E0,-2.622130357E0,2.738697817E0,4.260760999E0
1.359786883E1,1.472686166E0,-3.433205534E0,4.610171692E0,5.933749895E0
1.360789683E1,1.167484313E0,-4.069862361E0,5.780826366E0,7.165525294E0
1.361792483E1,1.268026017E0,-4.057578238E0,6.615159720E0,7.863343390E0
1.362795283E1,1.525757834E0,-3.794577787E0,7.065546184E0,8.163865532E0
1.363798083E1,2.127403581E0,-3.779591666E0,7.211700847E0,8.415449380E0
1.364800883E1,2.704709122E0,-3.869669485E0,6.915049378E0,8.373034172E0
1.365803683E1,3.374864355E0,-3.876934650E0,6.380266542E0,8.193175993E0
1.366806583E1,3.961078130E0,-3.688550811E0,5.668387917E0,7.837484840E0
1.367809383E1,4.470720862E0,-3.252695847E0,4.737981302E0,7.281197849E0
1.368812183E1,4.456515636E0,-2.401812826E0,4.028853207E0,6.469999585E0
1.369814983E1,3.903382484E0,-1.591112748E0,3.203211154E0,5.294204028E0
1.370817783E1,3.171059069E0,-1.464792717E0,2.015074621E0,4.032587141E0
1.371820583E1,2.375661739E0,-1.707890708E0,8.193121496E-1,3.038409414E0
1.372823383E1,1.897531407E0,-1.567116945E0,-4.144563465E-1,2.495647215E0
1.373826183E1,1.272871020E0,-1.526935171E0,-1.470106813E0,2.472437197E0
1.374828983E1,4.317139649E-1,-1.720222486E0,-2.346703988E0,2.941523748E0
1.375831783E1,-2.241641217E-1,-1.881630781E0,-2.901304207E0,3.465306631E0
1.376834583E1,-6.674742848E-1,-2.042889095E0,-3.104321873E0,3.775676372E0
1.377837483E1,-1.057659570E0,-2.218694404E0,-2.774514352E0,3.706639788E0
1.378840283E1,-1.454231769E0,-2.283832679E0,-1.824395749E0,3.264827958E0
1.379843083E1,-1.579764472E0,-2.338232250E0,-6.566469955E-1,2.897269597E0
1.380845883E1,-1.684755907E0,-2.488680524E0,4.967830963E-1,3.046100238E0
1.381848683E1,-1.613369005E0,-2.448228024E0,1.559819766E0,3.321116937E0
1.382851483E1,-1.392167668E0,-2.109617812E0,2.464804881E0,3.530422245E0
1.383854283E1,-1.094834413E0,-1.632926480E0,3.142510039E0,3.706815429E0
1.384857083E1,-8.464616489E-1,-1.125270340E0,3.556129210E0,3.824759550E0
1.385859883E1,-7.357855511E-1,-5.878170812E-1,3.603357171E0,3.724391521E0
1.386862683E1,-5.989858478E-1,-1.564252979E-1,3.281831646E0,3.339711346E0
1.387865483E1,-4.855153656E-1,1.392970490E-1,2.672443017E0,2.719757437E0
1.388868383E1,-5.035522717E-1,3.485645118E-1,1.998730484E0,2.090451065E0
1.389871183E1,-4.655880547E-1,4.540593919E-1,1.377087260E0,1.522928590E0
1.390873983E1,-3.362137306E-1,6.080469856E-1,9.764265418E-1,1.198402938E0
1.391876783E1,-2.156850743E-1,6.558041194E-1,6.900335006E-1,9.760867411E-1
1.392879583E1,-2.271467865E-1,6.288133720E-1,5.576010096E-1,8.705864720E-1
1.393882383E1,-2.428717035E-1,5.823417485E-1,6.152463698E-1,8.812699200E-1
1.394885183E1,-2.557653987E-1,4.591698584E-1,7.835538677E-1,9.435091741E-1
1.395887983E1,-3.395910823E-1,3.889991775E-1,9.951319309E-1,1.121128906E0
1.396890783E1,-3.183206660E-1,4.135297090E-1,1.050193918E0,1.172707181E0
1.397893583E1,-7.034141958E-2,5.261084908E-1,9.911498308E-1,1.124329154E0
1.398896383E1,2.880852985E-1,7.039951167E-1,9.008080832E-1,1.179006983E0
1.399899183E1,4.841699213E-1,9.277815083E-1,7.520795484E-1,1.288729098E0
1.400902083E1,5.106993234E-1,1.196537081E0,5.974814323E-1,1.431607086E0
1.401904883E1,3.787001842E-1,1.438197242E0,4.028731585E-1,1.540821832E0
1.402907683E1,7.654940844E-2,1.544104351E0,2.696689081E-1,1.569343613E0
1.403910483E1,-1.776647240E-1,1.551896350E0,2.628311010E-1,1.583990916E0
1.404913283E1,-3.644791710E-1,1.595175686E0,2.567698773E-1,1.656309544E0
1.405916083E1,-5.494336188E-1,1.698323494E0,1.743651402E-1,1.793483536E0
1.406918883E1,-6.984048861E-1,1.868638268E0,-1.340532660E-2,1.994933098E0
1.407921683E1,-8.940468746E-1,2.099586914E0,-2.559080708E-1,2.296317479E0
1.408924483E1,-1.080619247E0,2.328966752E0,-4.493071405E-1,2.606472903E0
1.409927283E1,-1.192773521E0,2.427915089E0,-4.394195719E-1,2.740541902E0
1.410930083E1,-1.224521563E0,2.535731022E0,-7.943208575E-2,2.817036444E0
1.411932983E1,-1.175732396E0,2.667451541E0,5.953154044E-1,2.975238616E0
1.412935783E1,-1.059806668E0,2.787752156E0,1.346785527E0,3.272397212E0
1.413938583E1,-9.938863277E-1,2.973811143E0,2.056146487E0,3.749546789E0
1.414941383E1,-1.015740296E0,3.205688911E0,2.631394393E0,4.269942178E0
1.415944183E1,-1.068506155E0,3.374771969E0,3.001752355E0,4.641261515E0
1.416946983E1,-1.074325889E0,3.573387267E0,3.191510875E0,4.910093109E0
1.417949783E1,-1.142950566E0,3.767506056E0,3.261224889E0,5.112340526E0
1.418952583E1,-1.262275865E0,3.873549112E0,3.162839638E0,5.157642646E0
1.419955383E1,-1.296897814E0,3.922408154E0,2.942728514E0,5.072167266E0
1.420958183E1,-1.050799032E0,3.831116453E0,2.524731824E0,4.707005701E0
1.421960983E1,-7.115880185E-1,3.835359193E0,1.921047739E0,4.348190665E0
1.422963783E1,-4.250645113E-1,3.825149077E0,1.126535093E0,4.010177878E0
1.423966683E1,-1.627180713E-1,3.737829682E0,2.140877612E-1,3.747490023E0
1.424969471E1,-6.414863348E-2,3.450448388E0,-4.392228131E-1,3.478882839E0
1.425972271E1,-1.898965144E-1,2.641167722E0,-4.919858214E-1,2.693302373E0
1.426975071E1,1.525947869E-1,1.540749218E0,2.732136364E-1,1.572208324E0
1.427977871E1,7.608671826E-1,4.568932450E-1,1.345368308E0,1.611733908E0
1.428980671E1,1.732454569E0,-3.976767379E-1,1.882874776E0,2.589355720E0
1.429983471E1,3.023214560E0,-9.103530049E-1,1.735744797E0,3.602968064E0
1.430986271E1,3.944945077E0,-9.659495008E-1,1.112220962E0,4.211019540E0
1.431989071E1,4.389616472E0,-4.317911482E-1,5.713603851E-1,4.447654332E0
1.432991871E1,4.157495459E0,-6.819812268E-2,2.251514241E-2,4.158115728E0
1.433994671E1,3.290563293E0,-2.660053352E-1,-6.664305568E-1,3.367891820E0
1.434997471E1,1.826892949E0,-1.115146763E0,-1.537044715E0,2.635070512E0
1.436000371E1,9.301043147E-1,-1.806432956E0,-2.136332571E0,2.948255572E0
1.437003171E1,4.527978551E-1,-2.344524146E0,-1.971214364E0,3.096369719E0
1.438005971E1,-2.101612097E-1,-3.060011088E0,-1.590667337E0,3.455149515E0
1.439008771E1,-8.009697264E-1,-3.549642601E0,-1.215460864E0,3.836516677E0
1.440011571E1,-1.126205310E0,-3.763229695E0,-9.244121964E-1,4.035439758E0
1.441014371E1,-1.432216417E0,-3.765563611E0,-9.926899874E-1,4.149234458E0
1.442017171E1,-1.784857900E0,-3.278338227E0,-1.201178309E0,3.921230494E0
1.443019971E1,-2.041602123E0,-2.617397621E0,-1.451566608E0,3.622976008E0
1.444022771E1,-2.194520845E0,-2.112418629E0,-1.733209590E0,3.504604070E0
1.445025571E1,-2.339540564E0,-1.504355563E0,-1.937596675E0,3.389810701E0
1.446028371E1,-2.383606936E0,-8.890881434E-1,-2.046972206E0,3.265295540E0
1.447031171E1,-2.338430178E0,-3.729286900E-1,-1.959789197E0,3.073777026E0
1.448033971E1,-2.018865225E0,2.675685883E-2,-1.697009332E0,2.637493772E0
1.449036871E1,-1.703638321E0,2.772735044E-1,-1.256583308E0,2.135009540E0
1.450039671E1,-1.461384083E0,3.791325858E-1,-5.697959626E-1,1.613707655E0
1.451042471E1,-1.146708571E0,4.698319638E-1,7.787204862E-2,1.241670922E0
1.452045271E1,-8.236732954E-1,3.869918284E-1,5.652862975E-1,1.071330468E0
1.453048071E1,-5.421760547E-1,7.280426681E-2,9.336822259E-1,1.082135775E0
1.454050871E1,-3.561147290E-1,-2.074244204E-1,1.230014730E0,1.297219652E0
1.455053671E1,-3.607913321E-1,-3.968929186E-1,1.383229175E0,1.483582598E0
1.456056471E1,-3.555937421E-1,-5.477914283E-1,1.237172891E0,1.398970736E0
1.457059271E1,-4.636818624E-1,-7.594831467E-1,8.828232904E-1,1.253472170E0
1.458062071E1,-6.315478224E-1,-9.579019779E-1,4.513220179E-1,1.232931634E0
1.459064871E1,-7.232076055E-1,-1.007491044E0,-1.470258987E-1,1.248873116E0
1.460067671E1,-9.066727674E-1,-8.297429976E-1,-1.104328683E0,1.652292586E0
1.461070571E1,-1.191028127E0,-5.006783652E-1,-2.150740549E0,2.508966268E0
1.462073371E1,-1.366331161E0,-1.299160686E-1,-3.089576949E0,3.380713645E0
1.463076171E1,-1.519201936E0,2.688649160E-1,-3.734586232E0,4.040717410E0
1.464078971E1,-1.523067530E0,5.813310573E-1,-3.819639831E0,4.152990361E0
1.465081771E1,-1.448550614E0,7.623284018E-1,-3.247683907E0,3.636879738E0
1.466084571E1,-1.461256029E0,8.181929925E-1,-2.267777248E0,2.819135081E0
1.467087371E1,-1.224977061E0,8.102138820E-1,-1.317224636E0,1.972839597E0
1.468090171E1,-1.112941486E0,7.888616046E-1,-3.851562412E-1,1.417493108E0
1.469092971E1,-1.052056768E0,8.731921953E-1,4.860883927E-1,1.451058227E0
1.470095771E1,-7.748426127E-1,1.128077588E0,8.421347094E-1,1.606901051E0
1.471098571E1,-5.820482183E-1,1.574235053E0,4.661202975E-1,1.741913965E0
1.472101371E1,-7.194472611E-2,1.869986928E0,-3.063951235E-1,1.896287195E0
1.473104171E1,6.102972865E-1,1.808300265E0,-9.837405315E-1,2.147127863E0
1.474107071E1,6.708112907E-1,1.633734273E0,-1.400246473E0,2.253833545E0
1.475109871E1,2.980951470E-1,1.796311426E0,-1.932206419E0,2.654998513E0
1.476112671E1,3.319639742E-1,2.053809063E0,-2.612410823E0,3.339614058E0
1.477115471E1,5.128546071E-1,2.235886388E0,-3.210921292E0,3.946165649E0
1.478118271E1,1.589629894E-1,2.335583754E0,-4.013649276E0,4.646461150E0
1.479121071E1,-3.425877804E-1,2.263378826E0,-4.751983044E0,5.274617801E0
1.480123871E1,-3.470421892E-1,1.975541157E0,-4.778717684E0,5.182600105E0
1.481126671E1,5.789129412E-1,1.329133806E0,-3.842455666E0,4.106848234E0
1.482129471E1,2.105699885E0,4.764077425E-2,-1.947066679E0,2.868328835E0
1.483132271E1,2.803073907E0,-1.029148546E0,-2.443270755E-1,2.996008308E0
1.484135071E1,2.804393624E0,-1.723565339E0,1.567401119E0,3.645826017E0
1.485137871E1,2.717846062E0,-2.012687934E0,3.456961602E0,4.836133109E0
1.486140771E1,2.621540081E0,-2.084133600E0,4.422679553E0,5.547628294E0
1.487143571E1,2.535874279E0,-2.142922676E0,4.667738700E0,5.728050325E0
1.488146371E1,2.442653874E0,-2.007253824E0,4.704041723E0,5.667771554E0
1.489149171E1,2.864212394E0,-2.013834280E0,4.564218425E0,5.752506495E0
1.490151971E1,3.475539376E0,-2.305734010E0,4.064575016E0,5.823792007E0
1.491154771E1,3.751821485E0,-2.447857895E0,3.639973605E0,5.772138301E0
1.492157571E1,3.429046994E0,-2.505375494E0,2.884162509E0,5.133581892E0
1.493160371E1,3.153211613E0,-2.519657903E0,1.494768322E0,4.304155174E0
1.494163171E1,3.253439906E0,-2.196098717E0,-5.353665335E-1,3.961608022E0
1.495165971E1,3.437684501E0,-1.696689197E0,-2.563811105E0,4.611892925E0
1.496168771E1,3.220878516E0,-1.670852398E0,-3.389248506E0,4.965159774E0
1.497171571E1,2.645755155E0,-2.031526493E0,-2.697714683E0,4.290079806E0
1.498174371E1,1.968478013E0,-2.345701191E0,-1.161504951E0,3.275105115E0
1.499177271E1,1.167867891E0,-2.529560163E0,1.925009374E-1,2.792784746E0
1.500180071E1,4.394223493E-1,-2.709809356E0,1.084926160E0,2.951816986E0
1.501182871E1,-1.872401243E-1,-2.769289573E0,1.469095245E0,3.140424245E0
1.502185671E1,-8.062713969E-1,-2.788633624E0,1.447598687E0,3.243777584E0
1.503188471E1,-1.380931658E0,-2.956085601E0,1.313783988E0,3.517306170E0
1.504191271E1,-1.721674642E0,-3.188083530E0,1.180055973E0,3.810586866E0
1.505194071E1,-2.002550908E0,-3.185176294E0,9.918772244E-1,3.890935439E0
1.506196871E1,-2.178907610E0,-3.107358625E0,7.913283256E-1,3.876792039E0
1.507199671E1,-2.328706259E0,-3.094363188E0,5.986495598E-1,3.918716330E0
1.508202471E1,-2.511960921E0,-3.051453688E0,4.705581880E-1,3.980294246E0
1.509205271E1,-2.547417852E0,-2.868151664E0,4.208932538E-1,3.859116843E0
1.510208071E1,-2.248229860E0,-2.677799651E0,3.494541657E-1,3.513867768E0
1.511210871E1,-2.009093358E0,-2.206242759E0,1.738716352E-1,2.989012308E0
1.512213771E1,-1.851157724E0,-1.652206212E0,-1.703176975E-1,2.487082307E0
1.513216571E1,-1.666583346E0,-1.041096455E0,-6.602418637E-1,2.072993293E0
1.514219371E1,-1.384252292E0,-3.807165965E-1,-1.102986016E0,1.810435773E0
1.515222171E1,-1.018567425E0,2.114212847E-1,-1.513431319E0,1.836478401E0
1.516224971E1,-6.746394628E-1,5.675705123E-1,-1.774665034E0,1.981592964E0
1.517227771E1,-5.146637356E-1,7.482450905E-1,-1.748329175E0,1.970128011E0
1.518230571E1,-4.563652414E-1,6.474136573E-1,-1.404837999E0,1.612756486E0
1.519233371E1,-3.714531451E-1,3.558042419E-1,-8.404167974E-1,9.853296357E-1
1.520236171E1,-3.800976688E-1,-5.221271217E-3,-2.778585184E-1,4.708575748E-1
1.521238971E1,-3.774348468E-1,-3.098579907E-1,5.213377476E-2,4.911078990E-1
1.522241771E1,-4.111066228E-1,-3.975793818E-1,-6.541864872E-3,5.719447667E-1
1.523244571E1,-3.939818823E-1,-2.073542538E-1,-4.648010194E-1,6.436283849E-1
1.524247308E1,-2.123621017E-1,2.301616108E-1,-1.018880836E0,1.065922224E0
1.525250208E1,4.975512743E-2,6.473756504E-1,-1.394470886E0,1.538219704E0
1.526253008E1,3.388566720E-1,9.004735494E-1,-1.494099255E0,1.777078794E0
1.527255808E1,7.350406158E-1,1.075252380E0,-1.282872097E0,1.828172094E0
1.528258608E1,1.174532547E0,1.246228766E0,-9.603782737E-1,1.963399926E0
1.529261408E1,1.593937538E0,1.358480397E0,-6.550039279E-1,2.194341817E0
1.530264208E1,1.731874525E0,1.341548614E0,-5.583494532E-1,2.260729123E0
1.531267008E1,1.610523750E0,1.297400382E0,-7.998406291E-1,2.217381233E0
1.532269808E1,1.353795900E0,1.342607253E0,-1.399878976E0,2.365379192E0
1.533272608E1,1.086882200E0,1.515310029E0,-2.299598819E0,2.960681025E0
1.534275408E1,9.795436925E-1,1.702264810E0,-3.264575928E0,3.809811979E0
1.535278208E1,9.088467622E-1,1.870461430E0,-4.025251907E0,4.530704284E0
1.536281008E1,1.135249198E0,1.763459722E0,-4.329798871E0,4.811001891E0
1.537283808E1,2.109775395E0,1.453046246E0,-3.742298124E0,4.535117514E0
1.538286708E1,3.465807270E0,1.209627243E0,-2.102341830E0,4.230231585E0
1.539289508E1,4.219500504E0,1.175807825E0,-3.976270366E-1,4.398274184E0
1.540292308E1,4.421631732E0,1.077259729E0,9.198418665E-1,4.642997389E0
1.541295108E1,4.076298099E0,1.013125421E0,2.020016541E0,4.660804238E0
1.542297908E1,3.435188910E0,9.077088940E-1,2.880518525E0,4.574040364E0
1.543300708E1,2.406522759E0,6.474890864E-1,3.611448548E0,4.387841670E0
1.544303508E1,1.195220581E0,2.165256116E-1,4.079923958E0,4.256902052E0
1.545306308E1,4.388306111E-1,-9.258218139E-2,4.133367509E0,4.157628017E0
1.546309108E1,-1.208584392E-1,-2.426383996E-1,3.848081857E0,3.857617676E0
1.547311908E1,-6.159860426E-1,-5.323965865E-1,3.296675388E0,3.395725775E0
1.548314708E1,-8.233651471E-1,-1.045690904E0,2.391736904E0,2.737116193E0
1.549317508E1,-5.863155162E-1,-1.456078320E0,1.222669165E0,1.989685866E0
1.550320308E1,8.947643280E-2,-1.453830650E0,1.115283296E-2,1.456624171E0
1.551323208E1,9.246909624E-1,-6.474019629E-1,-1.167821040E0,1.624188615E0
1.552326008E1,1.088113039E0,4.482221165E-1,-2.034862622E0,2.350650748E0
1.553328808E1,8.236960995E-1,1.031303245E0,-2.304531530E0,2.655734780E0
1.554331608E1,7.223439717E-1,1.305197352E0,-2.153151795E0,2.619424286E0
1.555334408E1,4.111200714E-1,1.365635342E0,-1.873726223E0,2.354746177E0
1.556337208E1,-2.184794587E-1,1.133306168E0,-1.504117728E0,1.895913048E0
1.557340008E1,-1.079298361E0,6.183702448E-1,-1.041680299E0,1.622456334E0
1.558342808E1,-1.783522396E0,-7.168218613E-2,-5.168668203E-1,1.858290016E0
1.559345608E1,-2.030186604E0,-5.151657191E-1,1.725498721E-2,2.094600463E0
1.560348408E1,-2.116352343E0,-7.826164860E-1,5.707278626E-1,2.327480633E0
1.561351208E1,-2.141336911E0,-7.888195047E-1,1.226293269E0,2.590628333E0
1.562354008E1,-2.334725382E0,-9.137446824E-1,1.677342807E0,3.016513028E0
1.563356808E1,-2.475752622E0,-1.144945051E0,1.817364911E0,3.277661581E0
1.564359708E1,-2.544287837E0,-1.266830846E0,1.789171976E0,3.358481405E0
1.565362508E1,-2.628478972E0,-1.372401155E0,1.647896229E0,3.392336749E0
1.566365308E1,-2.626616634E0,-1.413567600E0,1.420709828E0,3.303892358E0
1.567368108E1,-2.496699103E0,-1.467961031E0,1.197768286E0,3.134176904E0
1.568370908E1,-2.346457236E0,-1.503913806E0,1.063161800E0,2.982940044E0
1.569373708E1,-2.086512832E0,-1.406729866E0,9.839938621E-1,2.701974951E0
1.570376508E1,-1.646260178E0,-1.062245541E0,8.972716141E-1,2.154909398E0
1.571379308E1,-1.153013039E0,-6.517628163E-1,8.382906036E-1,1.567470884E0
1.572382108E1,-8.435813105E-1,-3.510937250E-1,6.941767645E-1,1.147509308E0
1.573384908E1,-7.292466098E-1,-1.601920742E-1,4.838442314E-1,8.897007130E-1
1.574387708E1,-1.065912915E0,-1.799802214E-1,2.849011973E-2,1.081376396E0
1.575390508E1,-1.465042686E0,-2.009398583E-1,-7.646744509E-1,1.664768427E0
1.576393308E1,-1.505803626E0,1.350572330E-1,-1.704968416E0,2.278728223E0
1.577396108E1,-1.480424956E0,7.118783328E-1,-2.716299473E0,3.174383663E0
1.578399008E1,-1.606592667E0,1.269415608E0,-3.638323520E0,4.174919643E0
1.579401808E1,-1.714784868E0,1.730257185E0,-4.390696453E0,5.021204279E0
1.580404608E1,-1.768984464E0,2.085937758E0,-4.901672642E0,5.613095140E0
1.581407408E1,-1.735679308E0,2.189242856E0,-4.841036139E0,5.589364708E0
1.582410208E1,-1.353826305E0,1.889133636E0,-4.021028463E0,4.644388168E0
1.583413008E1,-9.570570552E-1,1.252655149E0,-2.408431728E0,2.878479897E0
1.584415808E1,-4.948188704E-1,7.059317145E-1,-5.509385459E-1,1.023092655E0
1.585418608E1,4.984961843E-1,2.639412680E-1,9.279591174E-1,1.085942707E0
1.586421408E1,1.497155010E0,-4.072351813E-2,1.773265210E0,2.321120642E0
1.587424208E1,1.643463455E0,3.039134189E-1,1.629649408E0,2.334329173E0
1.588427008E1,1.856388643E0,1.211741889E0,-1.665322101E-1,2.223112722E0
1.589429808E1,1.970839704E0,2.408404685E0,-3.355713555E0,4.576618372E0
1.590432608E1,2.060331339E0,3.120803712E0,-6.946675798E0,7.889276626E0
1.591435408E1,2.401129287E0,3.594588979E0,-9.917876451E0,1.081900019E1
1.592438208E1,2.785934549E0,3.659459743E0,-1.057746810E1,1.153411932E1
1.593441108E1,3.363638871E0,2.633300293E0,-7.437701579E0,8.577163964E0
1.594443908E1,3.578248642E0,6.901047635E-1,-2.800342673E0,4.595870648E0
1.595446708E1,2.876808466E0,-1.093110946E0,1.154599389E0,3.286946644E0
1.596449508E1,2.242443455E0,-1.981842409E0,3.756185846E0,4.802622627E0
1.597452308E1,1.785314568E0,-2.256145821E0,5.094253321E0,5.850552022E0
1.598455108E1,1.212156456E0,-2.024658938E0,5.865898676E0,6.322763191E0
1.599457908E1,1.234691041E0,-1.636073159E0,6.379796426E0,6.700970063E0
1.600460708E1,1.693697469E0,-1.470549009E0,6.574300547E0,6.946405774E0
1.601463508E1,2.317156838E0,-1.405732331E0,6.795570881E0,7.316083843E0
1.602466308E1,2.260489717E0,-1.298303484E0,6.853627886E0,7.332640786E0
1.603469108E1,1.676921808E0,-1.449121595E0,6.672316253E0,7.030776936E0
1.604471908E1,1.347278008E0,-1.596351269E0,5.912398074E0,6.270561888E0
1.605474708E1,1.372225154E0,-1.291675958E0,4.821000069E0,5.176240945E0
1.606477508E1,1.620502024E0,-9.421013394E-1,3.894268136E0,4.321910001E0
1.607480408E1,1.868674228E0,-7.819922957E-1,3.137876705E0,3.734933137E0
1.608483208E1,1.771071335E0,-7.718181404E-1,1.901266754E0,2.710574143E0
1.609486008E1,1.324601921E0,-6.570065993E-1,9.665691595E-1,1.766489134E0
1.610488808E1,8.890860969E-1,-4.048667666E-1,8.145741507E-2,9.803195891E-1
1.611491608E1,3.511597985E-1,-2.071098402E-1,-9.137188084E-1,1.000544727E0
1.612494408E1,-4.590403426E-1,-2.221424469E-1,-1.628645879E0,1.706620258E0
1.613497208E1,-1.346703227E0,-3.515196946E-1,-2.117570172E0,2.534024292E0
1.614500008E1,-1.909766121E0,-5.866479304E-1,-2.026181553E0,2.845483108E0
1.615502808E1,-2.211232188E0,-9.628039911E-1,-1.339130498E0,2.758588372E0
1.616505608E1,-2.588927236E0,-1.292196068E0,-4.034309097E-1,2.921484453E0
1.617508408E1,-2.776066788E0,-1.524888646E0,2.928987265E-1,3.180820941E0
1.618511208E1,-2.810648975E0,-1.826814888E0,6.089033103E-1,3.407016810E0
1.619514008E1,-2.843880456E0,-1.948379964E0,7.144315926E-1,3.520547263E0
1.620516808E1,-3.019311544E0,-1.932907939E0,5.945823828E-1,3.633992778E0
1.621519708E1,-3.110311176E0,-1.823413855E0,3.822827733E-1,3.625605304E0
1.622522508E1,-3.039323639E0,-1.609216020E0,2.069119851E-1,3.445268778E0
1.623525308E1,-2.783447143E0,-1.237379883E0,6.704417467E-3,3.046101102E0
1.624528179E1,-2.444188768E0,-8.330481362E-1,-1.376610712E-1,2.585919276E0
1.625530979E1,-2.002804093E0,-4.013598990E-1,-2.511484373E-1,2.058006205E0
1.626533779E1,-1.572664783E0,6.694184840E-2,-3.674202474E-1,1.616401364E0
1.627536579E1,-1.344296513E0,4.060636917E-1,-5.117752111E-1,1.494635308E0
1.628539379E1,-1.205102960E0,5.947407693E-1,-6.967705894E-1,1.513763185E0
1.629542179E1,-1.032905383E0,7.453773236E-1,-8.475211644E-1,1.529958499E0
1.630544979E1,-9.805271941E-1,8.308373040E-1,-9.997803211E-1,1.628276664E0
1.631547779E1,-8.741932386E-1,8.660965991E-1,-1.165070583E0,1.694616948E0
1.632550579E1,-5.880574018E-1,9.207516932E-1,-1.395592382E0,1.772363756E0
1.633553379E1,-2.963251948E-1,9.794220704E-1,-1.626688378E0,1.921767752E0
1.634556179E1,-2.621949971E-2,1.024544741E0,-1.916609702E0,2.173424059E0
1.635559079E1,2.663009119E-1,1.062105208E0,-2.180347195E0,2.439856049E0
1.636561879E1,6.652792400E-1,1.105109725E0,-2.240605091E0,2.585377176E0
1.637564679E1,1.184262314E0,1.080029263E0,-1.990172353E0,2.555332939E0
1.638567479E1,1.805723104E0,1.142263518E0,-1.644569163E0,2.696295534E0
1.639570279E1,2.303538088E0,1.465394104E0,-1.484188224E0,3.107488099E0
1.640573079E1,2.408085135E0,1.970713111E0,-1.904902407E0,3.648456847E0
1.641575879E1,2.262736802E0,2.316393484E0,-2.610304656E0,4.159248370E0
1.642578679E1,2.105868870E0,2.364859885E0,-3.301691129E0,4.574757949E0
1.643581479E1,1.816425263E0,2.125012946E0,-3.836155876E0,4.746701240E0
1.644584279E1,1.500868576E0,1.728289597E0,-4.017454644E0,4.623800735E0
1.645587079E1,1.372667788E0,1.330490068E0,-3.753385030E0,4.212163323E0
1.646589879E1,2.052854505E0,7.853690627E-1,-2.670886488E0,3.458995636E0
1.647592679E1,4.350136072E0,4.912494376E-1,-6.760527349E-1,4.429679126E0
1.648595479E1,6.294185588E0,8.254078719E-1,1.787030725E0,6.594812293E0
1.649598379E1,7.002088691E0,1.661707352E0,3.848039757E0,8.160755316E0
1.650601179E1,6.816584605E0,2.580092677E0,4.872055618E0,8.766962407E0
1.651603979E1,5.033667396E0,2.720037598E0,4.868118103E0,7.512322267E0
1.652606779E1,2.193059042E0,1.795456563E0,4.302378938E0,5.152051704E0
1.653609579E1,-1.058106297E-1,8.214610013E-1,3.965843611E0,4.051408349E0
1.654612379E1,-9.851774848E-1,1.747776613E-1,4.014120562E0,4.136941599E0
1.655615179E1,-5.774435359E-1,5.000860423E-2,3.925870875E0,3.968425888E0
1.656617979E1,-7.956487602E-1,-4.821619874E-1,3.645512087E0,3.762352391E0
1.657620779E1,-1.064435323E0,-1.444307582E0,3.007983148E0,3.502429095E0
1.658623579E1,-9.229613560E-1,-2.124815895E0,2.362458580E0,3.308762729E0
1.659626379E1,-7.387734783E-1,-2.352122603E0,1.921157666E0,3.125558154E0
1.660629179E1,-6.800738651E-1,-1.843065470E0,1.460802870E0,2.448129044E0
1.661631979E1,-1.056691271E0,-1.604845227E0,7.141871790E-1,2.049923894E0
1.662634779E1,-1.249826558E0,-1.435162244E0,3.141616876E-1,1.928848014E0
1.663637679E1,-1.385738654E0,-8.410611606E-1,1.069351955E-1,1.624527817E0
1.664640479E1,-1.755521834E0,-4.387095737E-1,2.061735548E-2,1.809626502E0
1.665643279E1,-2.175434949E0,-3.191986254E-1,-4.535553619E-2,2.199195786E0
1.666646079E1,-2.560928428E0,-2.869822213E-1,8.057463169E-3,2.576970728E0
1.667648879E1,-2.677652886E0,-2.188039792E-1,2.474179868E-1,2.697946593E0
1.668651679E1,-2.456507097E0,-2.090911692E-1,5.188749734E-1,2.519400221E0
1.669654479E1,-2.280929244E0,-3.442825958E-1,6.907339239E-1,2.407962225E0
1.670657279E1,-2.205773812E0,-4.526882198E-1,7.360777657E-1,2.369002999E0
1.671660079E1,-2.044175482E0,-6.219595581E-1,5.943215239E-1,2.217815405E0
1.672662879E1,-1.906453673E0,-7.280537778E-1,4.516705120E-1,2.090127786E0
1.673665679E1,-1.939533126E0,-8.990684634E-1,3.355261711E-1,2.163952555E0
1.674668479E1,-1.815016084E0,-9.276011217E-1,1.628869097E-1,2.044812796E0
1.675671279E1,-1.609026278E0,-9.593745992E-1,-2.233636379E-4,1.873329986E0
1.676674079E1,-1.421399068E0,-8.888364208E-1,-1.767696615E-1,1.685720323E0
1.677676879E1,-1.301368010E0,-8.287042397E-1,-3.581957531E-1,1.583860351E0
1.678679779E1,-1.184814876E0,-7.970760655E-1,-5.514064693E-1,1.530740226E0
1.679682579E1,-1.055825883E0,-8.303025761E-1,-7.189829191E-1,1.523518002E0
1.680685379E1,-1.093904706E0,-1.019342766E0,-9.255323768E-1,1.758492923E0
1.681688179E1,-1.264399574E0,-1.203152913E0,-1.241262141E0,2.141731757E0
1.682690979E1,-1.548550866E0,-1.147948181E0,-1.585167153E0,2.495706256E0
1.683693779E1,-1.433265992E0,-8.510818264E-1,-2.024255773E0,2.622251535E0
1.684696579E1,-1.305149989E0,-4.870154688E-1,-2.492211950E0,2.855121882E0
1.685699379E1,-1.088032932E0,-5.214225322E-2,-3.058305455E0,3.246500691E0
1.686702179E1,-1.085582364E0,3.576148322E-1,-3.520786300E0,3.701663627E0
1.687704979E1,-1.059212590E0,7.850685158E-1,-3.729335432E0,3.955528618E0
1.688707779E1,-9.027767676E-1,1.142211770E0,-3.688269267E0,3.965221785E0
1.689710579E1,-5.002795851E-1,1.378344265E0,-3.248019537E0,3.563669947E0
1.690713379E1,7.782059312E-2,1.553699924E0,-2.717563641E0,3.131324263E0
1.691716179E1,8.735313338E-1,1.702548984E0,-2.213415538E0,2.925908129E0
1.692719079E1,1.674864172E0,1.823591903E0,-1.016909155E0,2.676707241E0
1.693721879E1,2.177007265E0,1.381710215E0,1.978908277E-1,2.586048053E0
1.694724679E1,2.354288996E0,1.110742348E0,6.764223520E-1,2.689604514E0
1.695727479E1,2.153740609E0,1.864031831E0,4.592059650E-2,2.848740420E0
1.696730279E1,1.809761192E0,2.563414957E0,-1.766344446E0,3.600875520E0
1.697733079E1,1.500990198E0,3.015433378E0,-4.050021297E0,5.267682843E0
1.698735879E1,1.490281023E0,3.594745976E0,-6.027751944E0,7.174742480E0
1.699738679E1,2.124200476E0,4.234619064E0,-7.232460802E0,8.645965275E0
1.700741479E1,2.644402694E0,3.928704143E0,-6.739202553E0,8.236773210E0
1.701744279E1,3.343592861E0,2.664379122E0,-4.944749372E0,6.536748097E0
1.702747079E1,3.577033591E0,7.222872537E-1,-2.977963543E0,4.710109877E0
1.703749879E1,3.141061683E0,-8.994371304E-1,-7.301147752E-1,3.347883396E0
1.704752679E1,2.476368919E0,-2.317371139E0,1.584466657E0,3.743413763E0
1.705755479E1,2.034332280E0,-3.372067632E0,3.577599016E0,5.320579166E0
1.706758279E1,1.677730477E0,-3.384537697E0,5.137525055E0,6.376836102E0
1.707761079E1,1.434126118E0,-2.962359663E0,6.127159288E0,6.955168829E0
1.708763979E1,1.305896679E0,-2.405452426E0,6.711038854E0,7.247731370E0
1.709766779E1,1.268775630E0,-2.094360380E0,7.046182544E0,7.459545928E0
1.710769579E1,1.079578443E0,-1.957565939E0,6.845810158E0,7.201574185E0
1.711772379E1,1.030284660E0,-1.840977429E0,5.832948446E0,6.202739069E0
1.712775179E1,1.443179947E0,-1.696641542E0,4.364157110E0,4.899717152E0
1.713777979E1,2.196472061E0,-1.548749671E0,3.193227618E0,4.173705509E0
1.714780779E1,2.745450767E0,-1.514352255E0,2.479450986E0,3.997304074E0
1.715783579E1,2.765467540E0,-1.594624294E0,1.947816292E0,3.739602340E0
1.716786379E1,2.354814076E0,-1.353725148E0,1.232749911E0,2.982849888E0
1.717789179E1,1.505349882E0,-1.182150884E0,3.422610672E-1,1.944402638E0
1.718791979E1,7.089339674E-1,-9.256142378E-1,2.551037863E-2,1.166190322E0
1.719794779E1,-2.093092704E-1,-5.904945213E-1,2.516793644E-1,6.751567616E-1
1.720797579E1,-7.993699282E-1,-4.943560633E-1,6.435226277E-1,1.139079265E0
1.721800379E1,-1.130678430E0,-6.453902283E-1,1.048766101E0,1.671787245E0
1.722803179E1,-1.392634860E0,-9.991599315E-1,1.409058812E0,2.218828330E0
1.723805979E1,-1.663361530E0,-1.462987097E0,1.629739601E0,2.750118905E0
1.724808858E1,-1.953096913E0,-1.930092212E0,1.639672705E0,3.198182308E0
1.725811658E1,-2.359048045E0,-2.384302754E0,1.515991376E0,3.680793007E0
1.726814458E1,-2.704402728E0,-2.655930772E0,1.436093706E0,4.053409369E0
1.727817258E1,-3.023962419E0,-2.701387319E0,1.383540101E0,4.284393232E0
1.728820058E1,-3.258504764E0,-2.572228757E0,1.170035965E0,4.313142501E0
1.729822858E1,-3.376958243E0,-2.297633277E0,6.693775535E-1,4.138965084E0
1.730825658E1,-3.365635110E0,-2.054512775E0,1.027075124E-1,3.944498862E0
1.731828458E1,-3.170656781E0,-1.762316299E0,-5.212898735E-1,3.664773703E0
1.732831258E1,-2.867067005E0,-1.317200808E0,-1.092146521E0,3.338843393E0
1.733834058E1,-2.471173083E0,-8.581967184E-1,-1.481338291E0,3.006253673E0
1.734836858E1,-2.016476637E0,-3.925545770E-1,-1.750540591E0,2.699012687E0
1.735839658E1,-1.643680387E0,4.898212552E-2,-1.940500256E0,2.543545892E0
1.736842458E1,-1.399599479E0,4.646410981E-1,-2.023074635E0,2.503517731E0
1.737845258E1,-1.215107546E0,7.704314733E-1,-2.004223212E0,2.467176866E0
1.738848058E1,-1.120545205E0,9.865401784E-1,-1.780384780E0,2.323500171E0
1.739850858E1,-1.046729954E0,1.070306220E0,-1.559265304E0,2.161598318E0
1.740853658E1,-9.066388535E-1,9.924175072E-1,-1.260196595E0,1.842547687E0
1.741856558E1,-5.571595448E-1,7.874079868E-1,-9.215785626E-1,1.334070891E0
1.742859358E1,-1.995724869E-1,6.584333199E-1,-6.943626329E-1,9.774983786E-1
1.743862158E1,2.061348170E-1,5.476443708E-1,-6.152253199E-1,8.490630800E-1
1.744864958E1,7.845542532E-1,5.351719674E-1,-6.775274757E-1,1.166609571E0
1.745867758E1,1.393642336E0,6.814023525E-1,-8.792352196E-1,1.783144048E0
1.746870558E1,1.928498846E0,8.919304749E-1,-1.216066489E0,2.448155525E0
1.747873358E1,2.215401837E0,1.313520278E0,-1.620989681E0,3.043180634E0
1.748876158E1,2.229079059E0,1.986235130E0,-2.097190433E0,3.648579334E0
1.749878958E1,2.189713265E0,2.486573772E0,-2.745984617E0,4.303292324E0
1.750881758E1,2.058112906E0,2.705372781E0,-3.421432750E0,4.822973427E0
1.751884558E1,1.745354696E0,2.710179485E0,-3.901699655E0,5.061086450E0
1.752887358E1,1.451501704E0,2.505744161E0,-4.242476553E0,5.136557047E0
1.753890158E1,1.725979947E0,2.291156609E0,-4.187026237E0,5.075391029E0
1.754892958E1,2.666319228E0,2.190384233E0,-3.306033272E0,4.778796638E0
1.755895758E1,3.473190549E0,1.795943052E0,-1.658834031E0,4.247374998E0
1.756898558E1,3.284143635E0,1.107225832E0,5.333362341E-2,3.466178434E0
1.757901358E1,2.526388341E0,3.051881120E-1,1.398145276E0,2.903547493E0
1.758904258E1,1.797718851E0,-2.912082964E-1,2.513797531E0,3.104154211E0
1.759907058E1,1.334035819E0,-4.184270445E-1,3.639386544E0,3.898700704E0
1.760909858E1,7.461175811E-1,-3.534764653E-1,4.469984697E0,4.545591298E0
1.761912658E1,-4.929085851E-2,-3.526470378E-1,4.800096273E0,4.813285131E0
1.762915458E1,-5.805086464E-1,-5.200785497E-1,4.640263803E0,4.705265152E0
1.763918258E1,-4.532504296E-1,-6.928795597E-1,4.089344991E0,4.172320757E0
1.764921058E1,6.245177150E-2,-7.131761223E-1,3.548205063E0,3.619707112E0
1.765923858E1,9.730942136E-1,-6.570747194E-1,3.169148784E0,3.379669148E0
1.766926658E1,1.860037306E0,-6.474519566E-1,2.880883391E0,3.489759580E0
1.767929458E1,2.358582022E0,-7.153232199E-1,2.576038803E0,3.565188968E0
1.768932258E1,2.794252213E0,-6.343845990E-1,2.274133318E0,3.658137723E0
1.769935058E1,2.899308552E0,-3.398311105E-1,1.873319402E0,3.468544486E0
1.770937858E1,2.701472104E0,1.049259460E-1,1.358114069E0,3.025464395E0
1.771940658E1,2.043262147E0,5.352968055E-1,7.251962435E-1,2.233242590E0
1.772943458E1,1.051983678E0,7.567185831E-1,3.541073799E-2,1.296358975E0
1.773946258E1,2.879478890E-1,6.658063665E-1,-6.686780803E-1,9.865812078E-1
1.774949158E1,-5.172429425E-1,3.658249077E-1,-1.153349254E0,1.315896131E0
1.775951958E1,-1.172595364E0,4.671223640E-2,-1.291005428E0,1.744665280E0
1.776954758E1,-1.741281525E0,-1.925447184E-1,-1.262952680E0,2.159672265E0
1.777957558E1,-2.263401631E0,-4.232451501E-1,-1.114233720E0,2.558053983E0
1.778960358E1,-2.836151606E0,-6.688475034E-1,-9.954767704E-1,3.079299745E0
1.779963158E1,-3.410628850E0,-9.964152485E-1,-8.196710224E-1,3.646517940E0
1.780965958E1,-3.769843188E0,-1.349169583E0,-5.342834830E-1,4.039484505E0
1.781968758E1,-3.930732250E0,-1.586357500E0,-1.532727715E-1,4.241542017E0
1.782971558E1,-3.846120701E0,-1.759206457E0,1.910273659E-1,4.233667826E0
1.783974358E1,-3.831052426E0,-1.827620050E0,4.592471878E-1,4.269433887E0
1.784977158E1,-3.784278794E0,-1.700491934E0,8.265203047E-1,4.230316137E0
1.785979958E1,-3.546268466E0,-1.407805169E0,1.314070501E0,4.035432654E0
1.786982758E1,-3.216559762E0,-1.126318453E0,1.785369093E0,3.847387784E0
1.787985558E1,-2.890506154E0,-7.695824575E-1,2.165183172E0,3.692600865E0
1.788988358E1,-2.578443763E0,-4.551683164E-1,2.357627610E0,3.523344772E0
1.789991158E1,-2.323798106E0,-3.082181391E-1,2.321454396E0,3.299119059E0
1.790993958E1,-1.980155488E0,-8.300151855E-2,2.009345373E0,2.822299388E0
1.791996758E1,-1.687081929E0,2.485706922E-1,1.527804945E0,2.289589652E0
1.792999558E1,-1.488959552E0,5.605415744E-1,9.164504814E-1,1.836052529E0
1.794002458E1,-1.417338177E0,7.770844352E-1,1.570934884E-1,1.624003107E0
1.795005258E1,-1.242554961E0,1.018230918E0,-6.845464003E-1,1.746236183E0
1.796008058E1,-9.356246710E-1,1.345169795E0,-1.404804085E0,2.158321065E0
1.797010858E1,-5.876200300E-1,1.628394595E0,-1.988545657E0,2.636528037E0
1.798013658E1,-1.560984385E-1,1.879931288E0,-2.486984539E0,3.121474086E0
1.799016458E1,9.426530242E-2,2.232949624E0,-3.292071290E0,3.979030453E0
1.800019258E1,3.248514211E-1,2.747758370E0,-4.183189294E0,5.015453836E0
1.801022058E1,6.595682645E-1,3.185629746E0,-4.795036093E0,5.794448922E0
1.802024858E1,1.260022348E0,3.015612595E0,-4.644786040E0,5.679402521E0
1.803027658E1,1.720451404E0,2.460259255E0,-3.936103503E0,4.950327203E0
1.804030458E1,1.981972802E0,2.321216560E0,-3.280693778E0,4.480983616E0
1.805033258E1,1.984206439E0,2.619528054E0,-2.959257131E0,4.422239838E0
1.806036058E1,1.663957946E0,2.988492039E0,-3.014283815E0,4.559138914E0
1.807038858E1,1.321950209E0,3.222277170E0,-3.287677692E0,4.789514289E0
1.808041658E1,1.521821489E0,3.209904462E0,-3.443990139E0,4.947776811E0
1.809044458E1,2.522958949E0,3.015808477E0,-2.973413240E0,4.929666208E0
1.810047258E1,3.373531775E0,2.292328683E0,-2.220936081E0,4.644140879E0
1.811050058E1,3.741191247E0,9.903645498E-1,-1.162322245E0,4.040832450E0
1.812052958E1,3.735912965E0,-7.884178010E-1,8.572617486E-1,3.913252613E0
1.813055758E1,2.995011100E0,-2.426098067E0,3.229364580E0,5.028403217E0
1.814058558E1,2.412788050E0,-3.107277056E0,5.009894371E0,6.369910399E0
1.815061358E1,2.076949711E0,-2.818177850E0,5.967695192E0,6.918759455E0
1.816064158E1,1.577957683E0,-2.106496276E0,6.100666723E0,6.644201342E0
1.817066958E1,1.206601017E0,-1.971471788E0,5.937230029E0,6.371286169E0
1.818069758E1,1.343844523E0,-2.352521383E0,5.734986534E0,6.342739590E0
1.819072558E1,1.597563397E0,-2.725148357E0,5.183416343E0,6.070127458E0
1.820075358E1,1.837333737E0,-2.837440917E0,4.266347226E0,5.443214572E0
1.821078158E1,1.899919994E0,-2.750631107E0,3.138623979E0,4.585480123E0
1.822080958E1,2.145008377E0,-2.348700520E0,1.766176192E0,3.638245926E0
1.823083758E1,2.630874576E0,-1.629531002E0,6.176251633E-1,3.155682678E0
1.824086558E1,2.887267381E0,-1.385163288E0,1.913513017E-1,3.208053239E0
1.825089379E1,2.761016055E0,-1.257523833E0,2.343694134E-1,3.042943454E0
1.826092179E1,2.011243379E0,-8.710670248E-1,7.589335084E-2,2.193084014E0
1.827094979E1,1.072771699E0,-5.357660446E-1,-2.798221596E-1,1.231334566E0
1.828097779E1,3.775430202E-2,-3.376822588E-1,-3.711204386E-1,5.031749946E-1
1.829100579E1,-6.659218490E-1,-3.484943452E-1,-1.214291275E-1,7.613443706E-1
1.830103379E1,-9.943394870E-1,-6.845811912E-1,1.505647067E-1,1.216565721E0
1.831106179E1,-1.377399940E0,-9.939398298E-1,2.202271914E-1,1.712789244E0
1.832109079E1,-1.827822656E0,-1.159028362E0,8.721684940E-2,2.166076911E0
1.833111879E1,-2.204140685E0,-1.342750509E0,-1.604499364E-1,2.585915557E0
1.834114679E1,-2.397164290E0,-1.537775617E0,-2.552706512E-1,2.859425394E0
1.835117479E1,-2.596951954E0,-1.634113465E0,-4.833308458E-2,3.068684141E0
1.836120279E1,-2.758923921E0,-1.494402433E0,9.726843238E-2,3.139165650E0
1.837123079E1,-2.818585986E0,-1.445535205E0,1.581823131E-1,3.171595913E0
1.838125879E1,-3.065124478E0,-1.333913028E0,1.603341615E-1,3.346642956E0
1.839128679E1,-3.168993248E0,-1.094619820E0,1.482935020E-1,3.355994892E0
1.840131479E1,-3.090423042E0,-9.037795651E-1,5.692615271E-2,3.220368405E0
1.841134279E1,-2.840828794E0,-5.074596736E-1,1.581664525E-2,2.885840211E0
1.842137079E1,-2.485904558E0,5.230860651E-2,-1.420440710E-1,2.490508820E0
1.843139879E1,-2.124464770E0,5.036452425E-1,-3.642370963E-1,2.213521572E0
1.844142679E1,-1.799994003E0,8.891662037E-1,-4.458244658E-1,2.056539424E0
1.845145479E1,-1.598960297E0,1.201975869E0,-5.887725163E-1,2.085203370E0
1.846148279E1,-1.362071464E0,1.496907965E0,-6.980698407E-1,2.140858153E0
1.847151079E1,-1.252926167E0,1.629849090E0,-7.885017085E-1,2.201809933E0
1.848153879E1,-1.159318677E0,1.511160553E0,-8.497407675E-1,2.085589936E0
1.849156679E1,-1.008549975E0,1.419537022E0,-8.851479971E-1,1.953393301E0
1.850159479E1,-7.675049418E-1,1.416268429E0,-9.371753526E-1,1.863646356E0
1.851162379E1,-3.908606386E-1,1.489868209E0,-1.068991474E0,1.874892555E0
1.852165179E1,2.382214129E-2,1.572011357E0,-1.279909898E0,2.027302776E0
1.853167979E1,4.838559258E-1,1.723427930E0,-1.564978033E0,2.377704067E0
1.854170779E1,1.024906392E0,1.935867507E0,-1.874056005E0,2.882724757E0
1.855173579E1,1.400801082E0,2.244394087E0,-2.098339995E0,3.376770531E0
1.856176379E1,1.933506401E0,2.639880165E0,-2.171285180E0,3.927071889E0
1.857179179E1,2.365536700E0,2.989699489E0,-1.946698304E0,4.280619255E0
1.858181979E1,2.799249244E0,3.256946481E0,-1.535812122E0,4.560944593E0
1.859184779E1,2.678061022E0,3.279401543E0,-1.302958453E0,4.429919418E0
1.860187579E1,2.180167100E0,2.965857468E0,-1.769726475E0,4.084283401E0
1.861190379E1,1.651272996E0,2.496062049E0,-2.668935857E0,4.010018313E0
1.862193179E1,1.132187596E0,2.125585096E0,-3.456716019E0,4.212937976E0
1.863195979E1,7.870305490E-1,1.874872423E0,-3.802133267E0,4.311702804E0
1.864198779E1,1.224132723E0,1.714212718E0,-3.561778790E0,4.138030246E0
1.865201579E1,2.328876997E0,1.621340661E0,-2.258111655E0,3.626497187E0
1.866204379E1,3.122147110E0,1.546366931E0,-7.526770790E-2,3.484927329E0
1.867207179E1,2.089747512E0,1.191148287E0,1.936403697E0,3.087966674E0
1.868209979E1,8.493636221E-1,7.292309685E-1,3.011403769E0,3.212747894E0
1.869212779E1,8.089330494E-1,4.829136470E-1,3.299078593E0,3.430961648E0
1.870215579E1,6.161906952E-1,4.677230193E-1,3.438397862E0,3.524348968E0
1.871218479E1,1.228675425E-2,3.878668642E-1,3.601874317E0,3.622718629E0
1.872221279E1,-1.848760951E-1,1.720595831E-1,3.685079026E0,3.693723203E0
1.873224079E1,3.052696806E-1,-4.647191584E-2,3.707637584E0,3.720473851E0
1.874226879E1,8.616018444E-1,-1.590720400E-1,3.743733616E0,3.844893112E0
1.875229679E1,1.285668236E0,-2.333810878E-1,3.833689520E0,4.050257385E0
1.876232479E1,1.862020097E0,-3.269122723E-1,3.870888337E0,4.307872676E0
1.877235279E1,2.390016069E0,-2.751889721E-1,3.757486267E0,4.461682287E0
1.878238079E1,2.695837727E0,-8.426364005E-2,3.562368189E0,4.468233266E0
1.879240879E1,2.668019598E0,2.867015550E-1,3.103117347E0,4.102421678E0
1.880243679E1,2.034705332E0,6.414369258E-1,2.578495803E0,3.346656200E0
1.881246479E1,1.144130534E0,7.732355055E-1,1.880873859E0,2.333369730E0
1.882249279E1,2.796319789E-1,6.377748147E-1,1.023538728E0,1.237975074E0
1.883252079E1,-6.889435065E-1,3.420875511E-1,2.397242204E-1,8.056889906E-1
1.884254879E1,-1.545026749E0,4.376290083E-2,-4.379728977E-1,1.606500266E0
1.885257679E1,-2.128175998E0,-1.960223499E-1,-8.380333992E-1,2.295617089E0
1.886260479E1,-2.346934369E0,-3.669443572E-1,-8.833283436E-1,2.534367387E0
1.887263279E1,-2.574042563E0,-5.084577933E-1,-5.434133255E-1,2.679463097E0
1.888266079E1,-3.018792311E0,-4.870941138E-1,-1.172588202E-1,3.060084529E0
1.889268879E1,-3.280682083E0,-4.580001229E-1,1.596278179E-1,3.316341370E0
1.890271679E1,-3.469384596E0,-5.806136039E-1,2.750835029E-1,3.528372510E0
1.891274479E1,-3.638772587E0,-7.442944193E-1,2.885121453E-1,3.725302589E0
1.892277279E1,-3.635070714E0,-8.889983886E-1,2.813456516E-1,3.752760665E0
1.893280079E1,-3.577653396E0,-1.036935284E0,2.085048397E-1,3.730725515E0
1.894282979E1,-3.529492804E0,-1.137444828E0,5.687827863E-2,3.708683773E0
1.895285779E1,-3.366260762E0,-1.191523094E0,-4.898190625E-2,3.571251605E0
1.896288579E1,-3.138063231E0,-1.239988326E0,-2.716375194E-2,3.374277665E0
1.897291379E1,-2.767708193E0,-1.274521981E0,1.341080837E-1,3.050016377E0
1.898294179E1,-2.339675635E0,-1.231729426E0,3.032227166E-1,2.661425083E0
1.899296979E1,-1.963604944E0,-1.200912260E0,5.038955033E-1,2.356235411E0
1.900299779E1,-1.437715724E0,-1.117477171E0,8.391057055E-1,2.004963868E0
1.901302579E1,-9.827538139E-1,-8.978826481E-1,1.350082333E0,1.895974845E0
1.902305379E1,-6.817999631E-1,-6.304906458E-1,1.875439457E0,2.092759613E0
1.903308179E1,-4.892166531E-1,-1.890314189E-1,1.984808117E0,2.052931824E0
1.904310979E1,-5.653240120E-1,3.360479620E-1,1.659412905E0,1.784984779E0
1.905313779E1,-3.883475053E-1,5.767301756E-1,9.531651485E-1,1.179811545E0
1.906316579E1,-1.241246939E-1,6.453940290E-1,1.356054094E-1,6.710657340E-1
1.907319379E1,-5.518017411E-2,5.960718879E-1,-7.564275379E-1,9.646393976E-1
1.908322179E1,2.450649941E-1,3.948285592E-1,-1.606114219E0,1.671989631E0
1.909324979E1,1.034925596E0,2.589962777E-1,-2.118609953E0,2.372057797E0
1.910327779E1,1.768448859E0,5.170605093E-1,-2.697780172E0,3.266922220E0
1.911330579E1,2.071108927E0,9.642640409E-1,-3.345664530E0,4.051267515E0
1.912333379E1,2.025666121E0,1.125650994E0,-3.520274084E0,4.214586933E0
1.913336179E1,2.080170357E0,1.289787892E0,-3.878951647E0,4.586603035E0
1.914338979E1,2.065134827E0,1.747794154E0,-5.139287406E0,5.807911957E0
1.915341779E1,1.625397897E0,2.487996692E0,-6.969917310E0,7.577057026E0
1.916344579E1,1.317948375E0,3.281632256E0,-8.386965466E0,9.102048555E0
1.917347479E1,2.459480991E0,4.133112862E0,-8.222811903E0,9.526085464E0
1.918350279E1,3.701947659E0,4.084679498E0,-5.932958053E0,8.098704485E0
1.919353079E1,4.056656132E0,3.016798118E0,-3.253497208E0,6.011886056E0
1.920355879E1,3.914226145E0,1.648439728E0,-1.242983416E0,4.425327968E0
1.921358679E1,3.563613646E0,2.418823546E-1,6.658866195E-1,3.633353036E0
1.922361479E1,2.869890041E0,-1.095598059E0,2.450625236E0,3.929652402E0
1.923364279E1,1.999230275E0,-1.899460988E0,4.046399531E0,4.896756366E0
1.924367079E1,9.819258481E-1,-2.025321136E0,5.319885678E0,5.776442478E0
1.925369904E1,3.607615113E-2,-1.472010228E0,6.099711288E0,6.274917800E0
1.926372704E1,-5.646129906E-2,-8.901871276E-1,6.405884364E0,6.467687027E0
1.927375504E1,2.123194170E-1,-8.743473127E-1,6.516687931E0,6.578509280E0
1.928378304E1,5.478607178E-1,-9.208581126E-1,6.468372388E0,6.556521363E0
1.929381104E1,5.244373566E-1,-1.224801937E0,6.223439541E0,6.364461803E0
1.930383904E1,9.372963899E-1,-1.682442749E0,5.762130479E0,6.075465890E0
1.931386704E1,1.492876602E0,-1.717003594E0,5.305641861E0,5.772921050E0
1.932389504E1,1.906556584E0,-1.524739542E0,5.140925796E0,5.691125259E0
1.933392304E1,2.289208902E0,-1.465373931E0,5.139324828E0,5.813816117E0
1.934395104E1,2.489229870E0,-1.366884600E0,5.042700759E0,5.787354301E0
1.935397904E1,2.398850042E0,-1.274628693E0,4.556931624E0,5.305165941E0
1.936400704E1,2.084308432E0,-1.082802597E0,3.815390074E0,4.480402272E0
1.937403504E1,1.260558538E0,-6.973354304E-1,3.109513031E0,3.427003913E0
1.938406304E1,3.199064308E-1,-3.242324933E-1,2.134718886E0,2.182771531E0
1.939409104E1,-4.066878819E-1,-1.345149037E-1,7.798944609E-1,8.897891114E-1
1.940411904E1,-9.974893820E-1,-1.317827922E-1,-2.585581751E-1,1.038847487E0
1.941414804E1,-1.614523246E0,-2.947973174E-1,-1.091791960E0,1.971192648E0
1.942417604E1,-2.173054547E0,-4.072249487E-1,-1.778807055E0,2.837631541E0
1.943420404E1,-2.417973361E0,-7.347564411E-1,-2.162369199E0,3.326004022E0
1.944423204E1,-2.566676241E0,-8.457205144E-1,-2.094416367E0,3.419013021E0
1.945426004E1,-2.739281954E0,-1.028057164E0,-1.802571309E0,3.436543391E0
1.946428804E1,-3.024079363E0,-1.227825532E0,-1.443898569E0,3.568957076E0
1.947431604E1,-3.215639411E0,-1.393946975E0,-1.040184508E0,3.655873193E0
1.948434404E1,-3.224823048E0,-1.468073590E0,-5.504919648E-1,3.585772603E0
1.949437204E1,-3.127463983E0,-1.442392911E0,-1.229423869E-1,3.446250587E0
1.950440004E1,-3.001140736E0,-1.315974355E0,6.249277510E-2,3.277581360E0
1.951442804E1,-2.700705534E0,-1.098217612E0,6.939548627E-3,2.915465736E0
1.952445604E1,-2.332808665E0,-7.852366233E-1,-9.423153475E-2,2.463223986E0
1.953448404E1,-2.022007518E0,-5.088939956E-1,-1.552809978E-1,2.090837079E0
1.954451204E1,-1.709120670E0,-1.860440764E-1,-1.818975234E-1,1.728812474E0
1.955454004E1,-1.437723910E0,1.218931040E-1,-2.463817140E-1,1.463766347E0
1.956456804E1,-1.264529967E0,4.159525028E-1,-3.080243039E-1,1.366357015E0
1.957459604E1,-1.060909452E0,6.786070910E-1,-3.897299333E-1,1.318304165E0
1.958462404E1,-8.352104366E-1,7.650993973E-1,-4.603103578E-1,1.222636163E0
1.959465204E1,-6.010961080E-1,7.327949926E-1,-4.697102686E-1,1.057796185E0
1.960468004E1,-3.821377623E-1,7.350528949E-1,-3.447986126E-1,8.973394625E-1
1.961470804E1,-1.239194566E-1,7.683899179E-1,-3.842404211E-1,8.679975800E-1
1.962473604E1,2.401539177E-1,8.762707543E-1,-7.052069521E-1,1.150148331E0
1.963476404E1,6.945632654E-1,1.030781966E0,-1.193928931E0,1.723483647E0
1.964479204E1,1.124687372E0,1.284868922E0,-1.725810378E0,2.427803800E0
1.965482004E1,1.606828895E0,1.703189254E0,-2.158069303E0,3.184339154E0
1.966484804E1,2.051795574E0,2.187419110E0,-2.347344843E0,3.808503020E0
1.967487704E1,2.362244718E0,2.645962731E0,-2.374518024E0,4.268448750E0
1.968490504E1,2.374737879E0,2.897068484E0,-2.478991395E0,4.491968848E0
1.969493304E1,2.007063205E0,2.806929854E0,-2.861703354E0,4.482912446E0
1.970496104E1,1.509395571E0,2.515543510E0,-3.404950619E0,4.494432429E0
1.971498904E1,1.453548229E0,2.340289300E0,-3.713864869E0,4.624126807E0
1.972501704E1,2.328478217E0,2.102935322E0,-3.291815182E0,4.547548237E0
1.973504504E1,3.001624301E0,1.922986383E0,-2.091478872E0,4.133026609E0
1.974507304E1,3.140647700E0,1.958037517E0,-5.094340590E-1,3.735920497E0
1.975510104E1,3.110901160E0,1.778233590E0,8.290590926E-1,3.677928725E0
1.976512904E1,3.184381365E0,1.385276139E0,2.022995113E0,4.018928202E0
1.977515704E1,2.967189463E0,1.131688828E0,3.114837506E0,4.448274452E0
1.978518504E1,2.099486634E0,9.773770067E-1,3.966863365E0,4.593377287E0
1.979521304E1,1.230706748E0,6.668027321E-1,4.230799663E0,4.456336025E0
1.980524104E1,8.344567305E-1,4.301293695E-1,3.937072094E0,4.047451789E0
1.981526904E1,7.995108461E-1,3.216290206E-1,3.632151200E0,3.732986091E0
1.982529704E1,8.055738240E-1,1.392534873E-1,3.450208068E0,3.545740604E0
1.983532504E1,9.870351452E-1,-3.247239518E-1,3.199906307E0,3.364384698E0
1.984535304E1,1.408099576E0,-7.554631859E-1,2.930036255E0,3.337451348E0
1.985538104E1,1.528203140E0,-8.802822366E-1,2.689113429E0,3.215840899E0
1.986540904E1,1.439566367E0,-7.828044739E-1,2.274287392E0,2.803126346E0
1.987543704E1,1.252917981E0,-5.294595301E-1,1.664396048E0,2.149498794E0
1.988546504E1,7.842314869E-1,-2.331258568E-1,1.049257267E0,1.330529031E0
1.989549304E1,1.002434957E-1,-5.883585334E-2,4.597117491E-1,4.741785617E-1
1.990552104E1,-6.073421037E-1,-1.799062541E-1,-3.881498694E-2,6.346158637E-1
1.991554904E1,-1.243512150E0,-4.058619627E-1,-2.830661948E-1,1.338347067E0
1.992557804E1,-1.871739923E0,-5.632365561E-1,-3.121487837E-1,1.979414717E0
1.993560604E1,-2.504190556E0,-7.509964979E-1,-2.156992538E-1,2.623259851E0
1.994563404E1,-3.005513284E0,-9.062470901E-1,-2.997048855E-2,3.139313957E0
1.995566204E1,-3.298949370E0,-1.009746900E0,1.701856966E-1,3.454217555E0
1.996569004E1,-3.503722955E0,-1.042828985E0,2.854305165E-1,3.666747526E0
1.997571804E1,-3.628241751E0,-1.017009142E0,3.147636585E-1,3.781206416E0
1.998574604E1,-3.634908746E0,-9.295225167E-1,2.744332194E-1,3.761899427E0
1.999577404E1,-3.651462214E0,-9.647967222E-1,1.977939101E-1,3.781948102E0
2.000580204E1,-3.593116357E0,-1.001531562E0,1.206502783E-1,3.732037931E0
2.001583004E1,-3.348154859E0,-9.257572022E-1,1.328863080E-1,3.476323651E0
2.002585804E1,-3.054519968E0,-8.231903154E-1,1.611587651E-1,3.167602670E0
2.003588604E1,-2.759184122E0,-7.235701329E-1,2.277597208E-1,2.861559932E0
2.004591404E1,-2.351903917E0,-4.539456636E-1,3.294802232E-1,2.417865984E0
2.005594204E1,-1.924393516E0,-2.024259281E-1,4.273041411E-1,1.981629503E0
2.006597004E1,-1.586466551E0,-1.269088456E-1,5.380387111E-1,1.680020127E0
2.007599804E1,-1.196561932E0,-1.511356142E-1,6.682876325E-1,1.378844005E0
2.008602604E1,-8.231131321E-1,-2.747437066E-1,7.992920141E-1,1.179774155E0
2.009605404E1,-8.545407468E-1,-5.408510756E-1,7.481616215E-1,1.257976783E0
2.010608204E1,-9.614717031E-1,-5.330859733E-1,4.786402094E-1,1.199043344E0
2.011611004E1,-9.131801337E-1,-1.709328246E-1,6.646062255E-2,9.314145165E-1
2.012613804E1,-9.661640936E-1,2.551540723E-1,-4.127480824E-1,1.081174193E0
2.013616604E1,-1.098559089E0,5.446628755E-1,-1.043164322E0,1.609870033E0
2.014619404E1,-1.128930112E0,6.267817569E-1,-1.873712189E0,2.275551787E0
2.015622204E1,-9.916491830E-1,5.621007344E-1,-2.986396397E0,3.196543255E0
2.016625004E1,-5.023395592E-1,9.774790406E-2,-3.919118510E0,3.952390363E0
2.017627804E1,6.219887942E-1,-3.764247403E-1,-4.129626460E0,4.193134907E0
2.018630604E1,1.104215101E0,-1.402904910E-1,-4.430913602E0,4.568584875E0
2.019633504E1,1.061663743E0,5.493830404E-1,-4.352059221E0,4.513243966E0
2.020636304E1,1.809668806E0,9.084441814E-1,-3.035716492E0,3.649074764E0
2.021639104E1,3.156653284E0,1.291557259E0,-1.833033110E0,3.872026664E0
2.022641904E1,3.549710137E0,1.678764558E0,-1.430840567E0,4.179234047E0
2.023644704E1,3.399299870E0,2.029815305E0,-2.322791215E0,4.590288532E0
2.024647504E1,3.116444321E0,2.427699327E0,-3.988236108E0,5.613552928E0
2.025650304E1,2.406306412E0,2.688268214E0,-5.403539454E0,6.497332927E0
2.026653104E1,1.508714370E0,2.738371250E0,-6.065647749E0,6.824000203E0
2.027655904E1,1.431624094E0,2.544924307E0,-5.489513404E0,6.217792590E0
2.028658704E1,2.591199464E0,1.953605913E0,-3.777756225E0,4.980194054E0
2.029661504E1,3.180223410E0,1.120985500E0,-1.997327152E0,3.919151079E0
2.030664304E1,2.943900003E0,-4.260105908E-2,-5.741673410E-1,2.999671685E0
2.031667104E1,2.652325671E0,-1.426238516E0,9.054822743E-1,3.144659905E0
2.032669904E1,2.227386290E0,-2.362813360E0,3.127362242E0,4.508273644E0
2.033672704E1,1.686750977E0,-2.894815259E0,5.142399294E0,6.137536537E0
2.034675504E1,1.424308058E0,-2.918019350E0,6.323925111E0,7.108833884E0
2.035678304E1,8.525491852E-1,-2.389926899E0,6.991257309E0,7.437490803E0
2.036681104E1,3.342736244E-1,-1.962605947E0,6.907445658E0,7.188627580E0
2.037683904E1,5.756729990E-1,-1.790282947E0,6.208536158E0,6.487097475E0
2.038686704E1,1.087824771E0,-1.985814715E0,5.055512009E0,5.539406510E0
2.039689504E1,1.527783310E0,-2.132052409E0,4.141658860E0,4.902357334E0
2.040692304E1,2.205598395E0,-2.282214755E0,2.910836338E0,4.306522571E0
2.041695104E1,2.802495033E0,-2.173168568E0,1.491380299E0,3.847187964E0
2.042697904E1,2.920458516E0,-1.536211779E0,-3.926077867E-1,3.323125855E0
2.043700704E1,2.923948719E0,-1.050634725E0,-2.199244226E0,3.806571240E0
2.044703504E1,2.585521232E0,-7.863049096E-1,-3.345813049E0,4.300890654E0
2.045706304E1,1.920065407E0,-7.318813652E-1,-3.381379323E0,3.956769847E0
2.046709104E1,1.376967831E0,-8.904470363E-1,-2.409611843E0,2.914646730E0
2.047712004E1,8.940497983E-1,-9.892553329E-1,-1.152674412E0,1.762557646E0
2.048714804E1,1.356559879E-1,-1.083702191E0,-1.240732384E-1,1.099184768E0
2.049717604E1,-6.483316702E-1,-1.316732739E0,5.359557867E-1,1.562487653E0
2.050720404E1,-1.197566484E0,-1.464968134E0,7.697262260E-1,2.042737276E0
2.051723204E1,-1.792496118E0,-1.797104016E0,7.087667370E-1,2.635332136E0
2.052726004E1,-2.117175631E0,-2.201264732E0,6.558506048E-1,3.123802024E0
2.053728804E1,-2.447307088E0,-2.585107542E0,6.620030451E-1,3.620820490E0
2.054731604E1,-2.718610877E0,-2.720854162E0,7.850449077E-1,3.925581228E0
2.055734404E1,-2.889603344E0,-2.624173082E0,8.392181913E-1,3.992540422E0
2.056737204E1,-2.982335506E0,-2.590986333E0,7.766038672E-1,4.026245002E0
2.057740004E1,-3.041072541E0,-2.571809219E0,7.656191417E-1,4.055674732E0
2.058742804E1,-3.007769725E0,-2.422795560E0,6.894826198E-1,3.923264371E0
2.059745604E1,-2.828112854E0,-2.242730846E0,7.110927594E-1,3.678820039E0
2.060748404E1,-2.666761862E0,-2.023558785E0,7.789778367E-1,3.437035853E0
2.061751204E1,-2.437170355E0,-1.901265731E0,5.290749295E-1,3.136005580E0
2.062754004E1,-2.119483527E0,-1.559614090E0,9.890923418E-2,2.633322914E0
2.063756804E1,-1.865230803E0,-1.100477561E0,-3.391700828E-1,2.192070518E0
2.064759604E1,-1.902429619E0,-7.342842785E-1,-6.603411933E-1,2.143469699E0
2.065762404E1,-1.752029293E0,-4.163334489E-1,-9.173918100E-1,2.021026451E0
2.066765204E1,-1.475427926E0,-1.444358745E-1,-1.137263564E0,1.868453291E0
2.067768004E1,-1.172577823E0,3.797240317E-2,-1.291851082E0,1.745067297E0
2.068770804E1,-9.783099300E-1,2.603499082E-1,-1.460706975E0,1.777227409E0
2.069773604E1,-8.138148898E-1,4.696963084E-1,-1.735203345E0,1.973281517E0
2.070776404E1,-3.899057883E-1,5.609383079E-1,-1.990733685E0,2.104684992E0
2.071779204E1,1.580438071E-1,7.345845330E-1,-2.140981400E0,2.269007192E0
2.072782004E1,7.429881513E-1,1.049626080E0,-2.188458452E0,2.538325570E0
2.073784804E1,1.261925032E0,1.366329699E0,-1.957109857E0,2.699924188E0
2.074787604E1,1.642445455E0,1.575586929E0,-1.551352705E0,2.754413995E0
2.075790404E1,1.987641678E0,1.549417131E0,-1.194834153E0,2.789093318E0
2.076793304E1,2.005218993E0,1.496404519E0,-9.640678668E-1,2.681334844E0
2.077796104E1,1.689336031E0,1.465758093E0,-9.224322561E-1,2.419335504E0
2.078798904E1,1.295392156E0,1.355569653E0,-1.236953913E0,2.246255752E0
2.079801704E1,8.868512911E-1,1.256613129E0,-1.763843007E0,2.340240142E0
2.080804504E1,9.616763556E-1,1.225337834E0,-2.212874086E0,2.706120090E0
2.081807304E1,1.050185659E0,1.128510574E0,-2.524841752E0,2.958251495E0
2.082810104E1,1.613062611E0,1.256183359E0,-2.780795431E0,3.451491105E0
2.083812904E1,3.000186471E0,1.671112306E0,-2.986693436E0,4.551271567E0
2.084815704E1,4.178960588E0,2.128213420E0,-2.787097560E0,5.455356704E0
2.085818504E1,4.998601059E0,2.350644427E0,-1.375628818E0,5.692442043E0
2.086821304E1,5.546060658E0,2.260705479E0,1.007147813E0,6.073213713E0
2.087824104E1,5.844306663E0,2.339114887E0,2.500614399E0,6.773510995E0
2.088826904E1,5.144869158E0,2.198082677E0,3.161444492E0,6.426194627E0
2.089829704E1,3.092995232E0,1.417360689E0,3.269744282E0,4.718766628E0
2.090832504E1,1.533453355E0,3.406701860E-1,3.158628473E0,3.527671923E0
2.091835304E1,1.398540548E0,-5.885886213E-1,2.943522273E0,3.311597138E0
2.092838104E1,2.089020118E0,-7.790762892E-1,2.986012820E0,3.726558396E0
2.093840904E1,2.112025988E0,-1.144075278E0,3.097546120E0,3.919739019E0
2.094843704E1,1.833874524E0,-1.587073492E0,3.066928052E0,3.909980270E0
2.095846504E1,1.768963414E0,-1.648052642E0,3.033499228E0,3.879101266E0
2.096849304E1,1.567227457E0,-1.675645068E0,3.083564258E0,3.843482383E0
2.097852104E1,1.108632088E0,-1.666916052E0,3.145533049E0,3.728545614E0
2.098854904E1,4.059096175E-1,-1.661852948E0,3.007582029E0,3.460067557E0
2.099857704E1,-5.460615295E-1,-1.587947943E0,2.638161961E0,3.127244857E0
2.100860504E1,-1.398952777E0,-1.571347405E0,2.142534567E0,3.002774702E0
2.101863304E1,-2.026904562E0,-1.481161705E0,1.593159420E0,2.973270764E0
2.102866104E1,-2.511865611E0,-1.380141699E0,1.132487558E0,3.081685907E0
2.103868904E1,-2.938941565E0,-1.342861022E0,6.914483075E-1,3.304353795E0
2.104871704E1,-3.225856251E0,-1.258041019E0,2.854748091E-1,3.474235401E0
2.105874504E1,-3.352019284E0,-1.045069930E0,-9.518214583E-2,3.512444174E0
2.106877404E1,-3.235787746E0,-8.231803751E-1,-3.877649765E-1,3.361295873E0
2.107880204E1,-3.100791324E0,-6.097608045E-1,-5.896821968E-1,3.214722409E0
2.108883004E1,-3.138019962E0,-4.666732979E-1,-7.785567641E-1,3.266665560E0
2.109885804E1,-3.253170934E0,-3.971525350E-1,-9.827370031E-1,3.421494305E0
2.110888604E1,-3.311399261E0,-4.868149093E-1,-1.111223574E0,3.526637443E0
2.111891404E1,-3.264138556E0,-6.457460314E-1,-1.208648711E0,3.540115840E0
2.112894204E1,-3.135684584E0,-6.457986563E-1,-1.174007321E0,3.409965821E0
2.113897004E1,-2.945920216E0,-7.816192433E-1,-1.089676438E0,3.236783790E0
2.114899804E1,-2.737679817E0,-8.381588951E-1,-9.464255016E-1,3.015480450E0
2.115902604E1,-2.434638510E0,-7.234183976E-1,-6.381848507E-1,2.618793378E0
2.116905404E1,-2.098297895E0,-6.075549424E-1,-3.225065415E-1,2.208163838E0
2.117908204E1,-1.844272043E0,-5.225320414E-1,9.051636010E-3,1.916888373E0
2.118911004E1,-1.693724951E0,-4.911091045E-1,3.300811708E-1,1.794114250E0
2.119913804E1,-1.611811892E0,-4.502449608E-1,5.925732064E-1,1.775331266E0
2.120916604E1,-1.607500155E0,-3.544982663E-1,8.311676717E-1,1.844062219E0
2.121919404E1,-1.461489918E0,-2.244205222E-1,9.631720734E-1,1.764657982E0
2.122922204E1,-1.162837531E0,5.458375812E-4,9.571668367E-1,1.506107491E0
2.123925004E1,-8.716760123E-1,2.473954019E-1,8.236820662E-1,1.224530809E0
2.124927817E1,-6.215204322E-1,2.892825159E-1,6.324604265E-1,9.327262261E-1
2.125930617E1,-3.559241098E-1,1.857882607E-1,5.360339932E-1,6.697250866E-1
2.126933417E1,-2.159610629E-2,3.061102179E-1,3.805403030E-1,4.888566042E-1
2.127936217E1,5.359435076E-1,5.424768940E-1,-3.492907360E-2,7.633719041E-1
2.128939017E1,1.260918726E0,8.308033901E-1,-1.052840222E0,1.840821241E0
2.129941817E1,1.610993282E0,1.220590480E0,-1.792118826E0,2.701264586E0
2.130944617E1,1.739567122E0,1.841543148E0,-2.312228805E0,3.429836291E0
2.131947417E1,2.209621865E0,2.340483428E0,-3.102464797E0,4.470523379E0
2.132950217E1,2.688056837E0,2.695281949E0,-4.177132456E0,5.651427244E0
2.133953017E1,2.357128404E0,3.054379927E0,-5.658207915E0,6.848401847E0
2.134955817E1,1.950062208E0,3.460664936E0,-7.195651410E0,8.219266611E0
2.135958617E1,2.202281270E0,3.687410019E0,-8.296723047E0,9.342518331E0
2.136961517E1,2.711525221E0,3.289379232E0,-8.043149185E0,9.103001350E0
2.137964317E1,2.987172323E0,2.345648858E0,-7.009681885E0,7.972509466E0
2.138967117E1,3.150023711E0,9.767858532E-1,-5.838189890E0,6.705312907E0
2.139969917E1,3.334265383E0,-8.805126169E-1,-4.233803962E0,5.460560787E0
2.140972717E1,3.154077001E0,-2.541831714E0,-2.174827569E0,4.597715209E0
2.141975517E1,3.259364889E0,-3.510589048E0,5.437457398E-2,4.790683828E0
2.142978317E1,3.272759106E0,-3.895106919E0,1.851216781E0,5.413853863E0
2.143981117E1,2.372560376E0,-3.784971397E0,3.190079477E0,5.489231119E0
2.144983917E1,1.533123572E0,-3.499620841E0,3.796592445E0,5.386272191E0
2.145986717E1,1.691299526E0,-3.257064302E0,4.079702933E0,5.487525670E0
2.146989517E1,2.033500221E0,-3.246047856E0,4.320752059E0,5.774153461E0
2.147992317E1,2.234976561E0,-3.158078250E0,4.374121935E0,5.839650775E0
2.148995117E1,2.316046452E0,-3.016515405E0,4.189381496E0,5.658122805E0
2.149997917E1,1.956608750E0,-2.734341934E0,3.752769903E0,5.038672996E0
2.151000717E1,1.605783412E0,-2.355704023E0,3.401245823E0,4.438057566E0
2.152003517E1,1.586218629E0,-2.171894752E0,3.382501988E0,4.321404408E0
2.153006317E1,1.609861845E0,-2.240841611E0,3.466458650E0,4.430503567E0
2.154009117E1,1.519866765E0,-2.487828000E0,3.305515208E0,4.407461166E0
2.155011917E1,1.310011949E0,-2.610939664E0,3.115781246E0,4.270975300E0
2.156014717E1,9.003273690E-1,-2.541469772E0,2.758476609E0,3.857311392E0
2.157017517E1,3.873271662E-1,-2.422461391E0,2.235176536E0,3.318788284E0
2.158020317E1,-1.790364808E-1,-2.278015284E0,1.664332752E0,2.826908419E0
2.159023117E1,-7.227433366E-1,-1.950739315E0,1.115655690E0,2.360599378E0
2.160025917E1,-1.267017372E0,-1.618338554E0,6.205522064E-1,2.146960115E0
2.161028717E1,-1.659405304E0,-1.348344833E0,2.774363494E-1,2.156068338E0
2.162031517E1,-1.968306690E0,-1.133626888E0,9.001788497E-2,2.273201348E0
2.163034317E1,-2.170199937E0,-1.021325849E0,-6.304584861E-2,2.399343459E0
2.164037117E1,-2.332326854E0,-1.024762842E0,-4.686419092E-2,2.547956768E0
2.165039917E1,-2.379163052E0,-1.067525869E0,7.269609332E-2,2.608699490E0
2.166042717E1,-2.402747796E0,-1.083649274E0,1.837149111E-1,2.642204362E0
2.167045617E1,-2.366511431E0,-9.642295423E-1,2.433108294E-1,2.566966132E0
2.168048417E1,-2.236986249E0,-7.987512928E-1,2.755756923E-1,2.391245088E0
2.169051217E1,-2.207480029E0,-6.127083859E-1,4.249628428E-1,2.330015679E0
2.170054017E1,-2.246897864E0,-3.422024488E-1,6.157878220E-1,2.354749917E0
2.171056817E1,-2.257473723E0,-5.812249303E-2,8.575772790E-1,2.415575423E0
2.172059617E1,-2.231077638E0,1.127416268E-1,1.071757207E0,2.477717016E0
2.173062417E1,-2.008651308E0,2.339874440E-1,1.137519745E0,2.320211493E0
2.174065217E1,-1.789429838E0,2.140960935E-1,1.057784773E0,2.089690147E0
2.175068017E1,-1.493033307E0,1.166095600E-1,9.936033225E-1,1.797218353E0
2.176070817E1,-1.258000966E0,1.079846245E-1,8.522761202E-1,1.523352124E0
2.177073617E1,-1.004002596E0,1.639936414E-1,5.707397032E-1,1.166472861E0
2.178076417E1,-7.676938069E-1,2.583582003E-1,2.415673359E-1,8.452558894E-1
2.179079217E1,-5.902202868E-1,5.523275520E-1,-1.910542631E-1,8.306187111E-1
2.180082017E1,-2.521734542E-1,9.247007565E-1,-6.499918409E-1,1.158081315E0
2.181084817E1,-4.521067142E-3,1.254872559E0,-1.122222113E0,1.683480933E0
2.182087617E1,-1.748200536E-2,1.526455700E0,-1.556167449E0,2.179915079E0
2.183090417E1,3.763724077E-1,1.903481972E0,-2.100098838E0,2.859250765E0
2.184093217E1,5.688557303E-1,2.097585120E0,-2.611374696E0,3.397460519E0
2.185096017E1,7.441277736E-1,2.192706016E0,-2.896382021E0,3.708195602E0
2.186098817E1,8.849146932E-1,2.190003287E0,-3.048979146E0,3.856872080E0
2.187101617E1,8.784517658E-1,2.055841555E0,-3.163678129E0,3.873889687E0
2.188104417E1,1.128502681E0,1.930176850E0,-3.191457081E0,3.896729305E0
2.189107217E1,1.537437063E0,1.823651399E0,-3.136472204E0,3.940415591E0
2.190110017E1,1.745403813E0,1.666741805E0,-3.122678622E0,3.946591503E0
2.191112817E1,1.706371309E0,1.498567843E0,-3.076376860E0,3.823807423E0
2.192115617E1,1.646596978E0,1.403833009E0,-3.041272516E0,3.732474681E0
2.193118417E1,1.620172825E0,1.503577153E0,-3.157358458E0,3.854168739E0
2.194121217E1,1.872218810E0,1.645574300E0,-3.377801996E0,4.197935728E0
2.195124017E1,2.900489690E0,1.817149733E0,-3.607804563E0,4.973040052E0
2.196126817E1,3.717557386E0,2.096082678E0,-3.667292966E0,5.626973716E0
2.197129617E1,3.759140444E0,2.613300185E0,-3.016031256E0,5.482419108E0
2.198132417E1,3.638186696E0,3.105939798E0,-1.370283294E0,4.976036652E0
2.199135317E1,3.141735867E0,2.884221566E0,5.019309850E-1,4.294318691E0
2.200138117E1,2.091374207E0,1.756320418E0,1.506161037E0,3.118818455E0
2.201140917E1,9.405310696E-1,6.777655305E-1,1.801694519E0,2.142444386E0
2.202143717E1,-2.060786837E-1,-1.144830738E-1,2.102407172E0,2.115582831E0
2.203146517E1,-1.100198649E0,-6.744883123E-1,2.311056877E0,2.646952103E0
2.204149317E1,-1.404225211E0,-1.049889059E0,2.421736629E0,2.989803301E0
2.205152117E1,-1.165736580E0,-1.411094374E0,2.244313395E0,2.896044151E0
2.206154917E1,-2.560706234E-1,-1.713110956E0,1.759760189E0,2.469226039E0
2.207157717E1,1.146743070E0,-1.872086809E0,1.332961978E0,2.568368417E0
2.208160517E1,2.148267031E0,-1.624197318E0,1.273275940E0,2.978976297E0
2.209163317E1,2.111186328E0,-8.639917476E-1,1.817453935E0,2.916629606E0
2.210166117E1,1.866999001E0,-1.666430148E-1,2.148439085E0,2.851183205E0
2.211168917E1,1.678936758E0,4.207361099E-1,2.043373829E0,2.677914136E0
2.212171717E1,1.253707940E0,9.357590108E-1,1.956315805E0,2.504915179E0
2.213174517E1,5.851548439E-1,1.166766275E0,1.795882241E0,2.220122239E0
2.214177317E1,-1.110058808E-1,9.986643800E-1,1.622349744E0,1.908316415E0
2.215180117E1,-5.232690829E-1,5.448844850E-1,1.381249162E0,1.574343953E0
2.216182917E1,-7.281976193E-1,8.027101502E-2,1.348681340E0,1.534814831E0
2.217185717E1,-1.035011550E0,-2.732313243E-1,1.516084932E0,1.855914272E0
2.218188517E1,-1.467833562E0,-5.736144868E-1,1.615769287E0,2.257051026E0
2.219191317E1,-1.873788788E0,-8.135932803E-1,1.554512394E0,2.567007447E0
2.220194117E1,-2.247101932E0,-9.338839549E-1,1.470589939E0,2.843279991E0
2.221196917E1,-2.561049466E0,-8.788707188E-1,1.298248082E0,3.002804720E0
2.222199717E1,-2.734876077E0,-6.287914449E-1,1.036564862E0,2.991553535E0
2.223202517E1,-2.888606978E0,-3.818930563E-1,6.694034274E-1,2.989647727E0
2.224205317E1,-3.015771639E0,-2.712190050E-1,2.865793481E-1,3.041474322E0
2.225208058E1,-3.087546796E0,-2.209121928E-1,-5.015887767E-2,3.095846141E0
2.226210858E1,-3.087535686E0,-8.132716835E-2,-2.703088859E-1,3.100412492E0
2.227213658E1,-2.909061708E0,3.497555897E-2,-3.959918627E-1,2.936098238E0
2.228216458E1,-2.647083642E0,2.318396156E-1,-4.093846178E-1,2.688567868E0
2.229219258E1,-2.352687444E0,3.484466904E-1,-4.977005245E-1,2.429868128E0
2.230222058E1,-2.164215311E0,3.838895881E-1,-6.413588655E-1,2.289659434E0
2.231224858E1,-2.055055397E0,3.378388180E-1,-7.614707614E-1,2.217481786E0
2.232227658E1,-2.025994735E0,1.927290519E-1,-8.074841094E-1,2.189481614E0
2.233230458E1,-2.036339629E0,2.442615867E-2,-8.444408512E-1,2.204621526E0
2.234233258E1,-1.978634042E0,7.493557692E-2,-7.979967096E-1,2.134808367E0
2.235236058E1,-1.718946331E0,3.050214663E-1,-6.947021368E-1,1.878942693E0
2.236238958E1,-1.402295630E0,4.395834401E-1,-5.896577847E-1,1.583465484E0
2.237241758E1,-1.121342180E0,4.620912735E-1,-4.948089302E-1,1.309874997E0
2.238244558E1,-8.028390813E-1,5.472081685E-1,-4.069217706E-1,1.053362567E0
2.239247358E1,-5.111168146E-1,7.363835751E-1,-4.220157731E-1,9.907565193E-1
2.240250158E1,-2.236144835E-1,1.012102159E0,-5.532003951E-1,1.174897823E0
2.241252958E1,1.383568168E-1,1.356981609E0,-7.980911422E-1,1.580345268E0
2.242255758E1,6.331066900E-1,1.760070968E0,-1.189637074E0,2.216734144E0
2.243258558E1,1.283159781E0,2.134265142E0,-1.721346613E0,3.027312485E0
2.244261358E1,1.874936596E0,2.453662426E0,-2.301957440E0,3.851604159E0
2.245264158E1,2.234017033E0,2.594515420E0,-2.785849764E0,4.413989270E0
2.246266958E1,2.693215250E0,2.650660969E0,-3.133491586E0,4.908989863E0
