"Time (s)","Linear Acceleration x (m/s^2)","Linear Acceleration y (m/s^2)","Linear Acceleration z (m/s^2)","Absolute acceleration (m/s^2)"
6.009725542E0,1.605301602E0,-1.970480100E0,9.057051994E-2,2.543223953E0
6.019751542E0,1.306249266E0,-1.914653808E0,9.223479831E-1,2.494576548E0
6.029776542E0,9.203523284E-1,-1.471744764E0,1.753605702E0,2.467430651E0
6.039802542E0,3.036242741E-1,-9.980668677E-1,2.529104372E0,2.735816898E0
6.049828542E0,-2.988219559E-1,-5.580562884E-1,3.225483198E0,3.287014336E0
6.059854542E0,-2.881952262E-1,-1.139670570E-1,3.712917620E0,3.725829066E0
6.069880542E0,-2.037052989E-2,2.035855772E-1,4.063800260E0,4.068947604E0
6.079905542E0,2.605133379E-1,4.394814062E-1,4.431649182E0,4.461000513E0
6.089931542E0,4.641648424E-1,5.652959454E-1,4.887071267E0,4.941505244E0
6.099957542E0,3.608907348E-1,5.547080997E-1,5.229982983E0,5.271685234E0
6.109983542E0,-3.446869308E-1,5.266625145E-1,4.862995357E0,4.903560576E0
6.120008542E0,-1.301811229E0,5.320666208E-1,4.282355733E0,4.507369298E0
6.130034542E0,-2.164732790E0,4.901086093E-1,3.849313865E0,4.443364911E0
6.140060542E0,-2.815588118E0,4.749639188E-1,3.532293035E0,4.542050337E0
6.150086542E0,-3.209301614E0,5.213025181E-1,3.236191204E0,4.587407402E0
6.160112542E0,-3.575946009E0,4.555042024E-1,2.848743585E0,4.594585286E0
6.170137542E0,-3.868571670E0,2.921874858E-1,2.316418189E0,4.518518952E0
6.180163542E0,-3.898380775E0,1.861413594E-2,1.868924489E0,4.323262414E0
6.190189542E0,-3.607398182E0,-8.687102314E-2,1.646478718E0,3.966328325E0
6.200215542E0,-3.097770068E0,4.157165676E-2,1.331035028E0,3.371878088E0
6.210241542E0,-3.266763956E0,-3.721509007E-1,8.689026779E-1,3.400769751E0
6.220266542E0,-3.400641221E0,-6.560836163E-1,6.497578061E-1,3.523775196E0
6.230292542E0,-3.142114767E0,-7.229403877E-1,5.356856453E-1,3.268407429E0
6.240318542E0,-2.712669522E0,-7.583533184E-1,2.917278215E-1,2.831745188E0
6.250344542E0,-2.270104294E0,-8.082108452E-1,-2.001516536E-2,2.409767392E0
6.260369542E0,-1.899651607E0,-8.036116447E-1,-2.501979724E-1,2.077755262E0
6.270395542E0,-1.514335299E0,-7.768658955E-1,-4.297750282E-1,1.755402686E0
6.280421542E0,-1.170362313E0,-7.390709554E-1,-5.968919599E-1,1.507399692E0
6.290447542E0,-8.386398286E-1,-5.673116999E-1,-7.989840120E-1,1.289780903E0
6.300473542E0,-5.972597498E-1,-3.168812276E-1,-1.005909519E0,1.212017690E0
6.310498542E0,-4.927998269E-1,-7.124258514E-2,-1.195255664E0,1.294821717E0
6.320524542E0,-5.000924742E-1,1.673853737E-1,-1.394974916E0,1.491330065E0
6.330550542E0,-4.937038064E-1,3.859745590E-1,-1.635498232E0,1.751449193E0
6.340576542E0,-4.184051174E-1,5.764647120E-1,-1.845749488E0,1.978425025E0
6.350601542E0,-2.992604971E-1,6.949439923E-1,-2.067062654E0,2.201193316E0
6.360627542E0,-1.883189356E-1,6.734090625E-1,-2.237304338E0,2.344029540E0
6.370653542E0,-3.229884982E-2,5.560487200E-1,-2.405874302E0,2.469506945E0
6.380679542E0,9.715675056E-2,4.319616676E-1,-2.552427161E0,2.590543327E0
6.390705542E0,3.077629334E-1,3.817124870E-1,-2.843486938E0,2.885453243E0
6.400730542E0,7.626271945E-1,4.496220861E-1,-3.145593275E0,3.267800072E0
6.410756542E0,1.328537682E0,6.128061440E-1,-3.257213114E0,3.570711556E0
6.420782542E0,1.637967657E0,8.481775144E-1,-3.309350397E0,3.788686209E0
6.430808542E0,1.836106406E0,1.227767352E0,-3.414404397E0,4.066553429E0
6.440834542E0,1.957722645E0,1.599708009E0,-3.562232534E0,4.368208362E0
6.450859542E0,1.934589890E0,1.828835101E0,-3.778743235E0,4.622356142E0
6.460885542E0,1.982419530E0,1.822730316E0,-4.117727376E0,4.920163792E0
6.470911542E0,1.897795701E0,1.605225003E0,-4.493248429E0,5.134944720E0
6.480937542E0,1.764045321E0,1.277688833E0,-4.695988938E0,5.176548730E0
6.490962542E0,2.020174416E0,9.943546166E-1,-4.523190851E0,5.052633101E0
6.500988542E0,2.668496146E0,7.293069823E-1,-3.991888279E0,4.856740922E0
6.511014542E0,3.320626752E0,4.803481811E-1,-3.006115547E0,4.504889243E0
6.521040542E0,3.736994115E0,2.976050042E-1,-1.662452288E0,4.100907383E0
6.531066542E0,4.086724854E0,8.250625938E-2,-2.411952520E-1,4.094667565E0
6.541091542E0,4.770893524E0,3.426007904E-2,9.492498529E-1,4.864532255E0
6.551117542E0,5.559345531E0,2.408198424E-1,1.937017654E0,5.892058581E0
6.561143542E0,5.686159945E0,6.200875720E-1,2.798579153E0,6.367807220E0
6.571169542E0,4.438169997E0,9.073794765E-1,3.479152955E0,5.711846962E0
6.581195542E0,2.407350140E0,1.143373539E0,3.652412971E0,4.521366857E0
6.591220542E0,8.357302541E-1,1.064179362E0,3.452996605E0,3.708653169E0
6.601246542E0,-6.568323523E-1,8.059813019E-1,3.043628359E0,3.216319043E0
6.611272542E0,-2.139188059E0,4.287570280E-1,2.481325019E0,3.304078085E0
6.621298542E0,-2.855593014E0,-1.061320804E-2,2.193585291E0,3.600880521E0
6.631323542E0,-2.500466464E0,-3.350421678E-1,2.398014475E0,3.480669363E0
6.641349542E0,-1.427784812E0,-6.229687145E-1,2.823307613E0,3.224550413E0
6.651375542E0,-1.999969947E-1,-7.827685136E-1,3.385201648E0,3.480275210E0
6.661401542E0,7.361989492E-1,-7.191024946E-1,3.872067136E0,4.006494876E0
6.671427542E0,1.242004738E0,-4.500803617E-1,4.192192837E0,4.395409979E0
6.681452542E0,1.099542006E0,-5.518594824E-2,4.037653851E0,4.185055165E0
6.691478542E0,-1.254876798E-1,1.023723938E-1,3.509699979E0,3.513434389E0
6.701504542E0,-1.665351337E0,1.986789592E-1,3.127914219E0,3.549185226E0
6.711530542E0,-2.793977979E0,4.225097166E-1,2.998533463E0,4.120197851E0
6.721554958E0,-3.596656846E0,7.013331717E-1,2.748308886E0,4.580503293E0
6.731580958E0,-4.091206160E0,9.515590645E-1,2.334531255E0,4.805566426E0
6.741606958E0,-4.377589919E0,1.131581240E0,2.067065724E0,4.971572217E0
6.751632958E0,-4.387626665E0,1.316331181E0,1.970854906E0,4.986809059E0
6.761658958E0,-4.101448728E0,1.464617886E0,1.896121789E0,4.749975269E0
6.771683958E0,-3.455749474E0,1.699266357E0,1.695116588E0,4.207508863E0
6.781709958E0,-2.679476048E0,1.794893623E0,1.471898400E0,3.545098011E0
6.791735958E0,-2.116086879E0,1.653334578E0,1.148226508E0,2.920575803E0
6.801761958E0,-1.739288794E0,1.368891072E0,7.153407615E-1,2.326091288E0
6.811786958E0,-1.506874836E0,1.070481491E0,4.485502915E-1,1.902051460E0
6.821812958E0,-1.310354596E0,8.317797290E-1,2.031718867E-1,1.565300450E0
6.831838958E0,-1.014570853E0,6.603634858E-1,-5.694033220E-2,1.211889496E0
6.841864958E0,-7.625704765E-1,5.492463617E-1,-1.877353835E-1,9.583474692E-1
6.851890958E0,-7.266919613E-1,3.428367256E-1,-3.052644912E-1,8.595374550E-1
6.861915958E0,-8.130272698E-1,1.092024533E-1,-4.346948755E-1,9.283847005E-1
6.871941958E0,-9.268930238E-1,-1.172388665E-1,-5.481874309E-1,1.083229010E0
6.881967958E0,-1.041778532E0,-3.211258677E-1,-6.740174653E-1,1.281687901E0
6.891993958E0,-1.061668421E0,-4.278387228E-1,-8.173642959E-1,1.406509936E0
6.902018958E0,-9.258218139E-1,-4.200651419E-1,-9.668646631E-1,1.403006782E0
6.912044958E0,-6.470850438E-1,-3.529350132E-1,-1.035638371E0,1.271152632E0
6.922070958E0,-2.649005038E-1,-2.531841454E-1,-1.022942896E0,1.086594063E0
6.932096958E0,1.350782830E-1,-1.607287024E-1,-1.039512151E0,1.060502415E0
6.942121958E0,5.017367113E-1,-1.113833917E-1,-1.066336180E0,1.183730897E0
6.952147958E0,7.590416819E-1,-1.466241219E-1,-1.116515815E0,1.358031838E0
6.962173958E0,8.474322867E-1,-4.461359762E-1,-1.203681502E0,1.538189828E0
6.972199958E0,8.081091768E-1,-8.646824500E-1,-1.289310467E0,1.750153610E0
6.982225958E0,1.091452383E0,-1.201169465E0,-1.283713512E0,2.069298618E0
6.992250958E0,2.004292209E0,-1.338575890E0,-1.278649823E0,2.728354457E0
7.002276958E0,2.507256251E0,-1.526070076E0,-1.372267254E0,3.240114381E0
7.012302958E0,2.342140236E0,-1.787383313E0,-1.592200330E0,3.348949370E0
7.022328958E0,1.858541003E0,-1.905132203E0,-1.965235147E0,3.308451686E0
7.032353958E0,1.713554029E0,-1.836043841E0,-2.493584291E0,3.539108223E0
7.042379958E0,2.211116413E0,-1.601309269E0,-3.219412619E0,4.221118901E0
7.052405958E0,3.315423900E0,-9.832080694E-1,-3.620226388E0,5.006473094E0
7.062431958E0,4.356435862E0,-1.072854437E-1,-4.007650033E0,5.920414038E0
7.072457958E0,4.707581627E0,1.691683542E-1,-4.447391056E0,6.478366300E0
7.082482958E0,4.147573904E0,-5.878664171E-1,-4.150602762E0,5.897072112E0
7.092508958E0,2.802122566E0,-1.628469586E0,-3.409302117E0,4.703949935E0
7.102534958E0,1.530062554E0,-2.001545626E0,-2.393047996E0,3.474759708E0
7.112560958E0,6.899813873E-1,-1.989214433E0,-1.339757612E0,2.495595887E0
7.122585958E0,3.664555299E-1,-1.936061342E0,-3.687863032E-1,2.004651220E0
7.132611958E0,3.033237273E-1,-1.893490981E0,5.019225796E-1,1.982230979E0
7.142637958E0,2.073410976E-1,-1.808520997E0,1.245144693E0,2.205475875E0
7.152663958E0,7.535891533E-3,-1.600173009E0,1.998961887E0,2.560558352E0
7.162689958E0,3.394893408E-2,-1.318602824E0,2.617093273E0,2.930706935E0
7.172714958E0,3.865395463E-1,-9.437663341E-1,3.022194221E0,3.189634089E0
7.182740958E0,6.920279127E-1,-6.192582907E-1,3.307193359E0,3.435099908E0
7.192766958E0,7.733363700E-1,-4.258671147E-1,3.528213433E0,3.636990785E0
7.202792958E0,6.742734271E-1,-2.573191501E-1,3.721256919E0,3.790595053E0
7.212817958E0,4.973512995E-1,-4.261816218E-3,3.861252710E0,3.893154116E0
7.222843958E0,1.907057691E-1,3.575626458E-1,4.121940880E0,4.141813172E0
7.232869958E0,-2.674791259E-1,7.014648803E-1,4.834445157E0,4.892387764E0
7.242895958E0,-9.730983067E-1,9.073897822E-1,4.677352692E0,4.862911138E0
7.252920958E0,-1.600303987E0,1.134467645E0,4.274564903E0,4.703179222E0
7.262946958E0,-1.866280378E0,1.318566133E0,3.901069325E0,4.521057507E0
7.272972958E0,-2.229625774E0,1.285183940E0,3.678265266E0,4.489160748E0
7.282998958E0,-2.541328561E0,1.200352024E0,3.629564391E0,4.590526496E0
7.293024958E0,-2.721597050E0,1.161967319E0,3.649023340E0,4.698151753E0
7.303049958E0,-2.913437179E0,1.079543213E0,3.377075188E0,4.588917799E0
7.313075958E0,-3.251228489E0,8.095151398E-1,2.779076350E0,4.353052585E0
7.323101958E0,-3.561202254E0,6.723412878E-1,2.030484227E0,4.154163032E0
7.333127958E0,-3.744179174E0,6.113777789E-1,1.397538920E0,4.042990911E0
7.343152958E0,-3.716026000E0,5.364806839E-1,1.023497213E0,3.891555897E0
7.353178958E0,-3.363728333E0,5.696806262E-1,8.281253654E-1,3.510697357E0
7.363204958E0,-2.893761299E0,4.970245498E-1,6.057037139E-1,2.997960114E0
7.373230958E0,-2.662257752E0,-1.131695699E-2,3.382526547E-1,2.683683899E0
7.383255958E0,-2.307013673E0,-5.378606999E-1,2.305463576E-1,2.380075176E0
7.393281958E0,-1.716612123E0,-8.402552681E-1,9.498991862E-2,1.913585425E0
7.403307958E0,-1.171198465E0,-1.016969820E0,-1.371670546E-1,1.557160319E0
7.413333958E0,-7.875351638E-1,-9.590027893E-1,-4.917936672E-1,1.334825455E0
7.423359958E0,-7.528167361E-1,-9.955811432E-1,-1.225567630E0,1.749265808E0
7.433384958E0,-5.723149431E-1,-9.206957792E-1,-2.191489064E0,2.444964096E0
7.443410958E0,-2.336950833E-1,-8.142743348E-1,-2.751110871E0,2.878587694E0
7.453436958E0,8.630139470E-2,-7.373447842E-1,-2.833950130E0,2.929573109E0
7.463462958E0,4.230431288E-1,-5.302368809E-1,-3.118690821E0,3.191606034E0
7.473487958E0,4.101675600E-1,-2.414177933E-1,-3.302517926E0,3.336636724E0
7.483513958E0,1.384568042E-1,-8.216459013E-2,-3.229222493E0,3.233233554E0
7.493539958E0,-1.310746944E-1,-3.175356955E-2,-3.183408973E0,3.186264514E0
7.503565958E0,-1.527596784E-1,1.305597191E-1,-2.726750786E0,2.734145426E0
7.513591958E0,-1.337030178E-1,3.129279251E-1,-2.356155428E0,2.380602609E0
7.523616958E0,-6.908719182E-2,4.556509675E-1,-2.822534026E0,2.859910693E0
7.533642958E0,-1.190779620E-1,7.419588221E-1,-3.234473877E0,3.320617972E0
7.543668958E0,1.061234558E-1,1.118161587E0,-3.805524652E0,3.967816200E0
7.553694958E0,8.167958003E-1,1.531606366E0,-3.610654496E0,4.006220080E0
7.563719958E0,1.996669194E0,1.882944650E0,-2.779416658E0,3.906062645E0
7.573745958E0,2.919087344E0,2.237958641E0,-1.948714424E0,4.162573448E0
7.583771958E0,3.122323696E0,2.456809690E0,-1.652122597E0,4.302827930E0
7.593797958E0,2.246380386E0,2.110928027E0,-1.920517981E0,3.631890870E0
7.603823958E0,1.156966342E0,1.501504461E0,-2.432307225E0,3.083699921E0
7.613848958E0,8.842551273E-1,9.373085229E-1,-2.706907675E0,2.997966571E0
7.623874958E0,1.709070969E-1,2.461422705E-1,-2.419633970E0,2.438118907E0
7.633900958E0,-1.383381057E-1,-2.597839342E-1,-2.323469492E0,2.342036636E0
7.643926958E0,8.551342392E-1,-4.979993172E-1,-2.201932776E0,2.414076601E0
7.653951958E0,1.732566251E0,-8.397795971E-1,-1.697319235E0,2.566692067E0
7.663977958E0,2.902304081E0,-1.293546043E0,-1.254156421E0,3.416070648E0
7.674003958E0,3.792928580E0,-1.768193189E0,-1.098291872E0,4.326552831E0
7.684029958E0,3.882126101E0,-2.011260482E0,-1.031471061E0,4.492215972E0
7.694054958E0,3.313811823E0,-2.036269170E0,-6.728461218E-1,3.947209499E0
7.704080958E0,2.860222254E0,-1.523104953E0,2.359737432E-1,3.249061964E0
7.714106958E0,2.280878373E0,-5.355876314E-1,1.292804178E0,2.675930288E0
7.724133208E0,1.324621217E0,3.498267430E-1,1.885664483E0,2.330821885E0
7.734159208E0,5.521011186E-1,8.350752197E-1,1.892333232E0,2.140815576E0
7.744184208E0,-4.222274423E-2,9.071953623E-1,1.763376399E0,1.983502587E0
7.754210208E0,-7.480109096E-1,6.866519827E-1,1.659215854E0,1.945252815E0
7.764236208E0,-1.323999074E0,2.655347622E-1,1.617915215E0,2.107399322E0
7.774262208E0,-1.478093671E0,-2.278236382E-1,1.612474381E0,2.199258544E0
7.784287208E0,-1.285044338E0,-8.302260507E-1,1.635159239E0,2.239276665E0
7.794313208E0,-9.063371372E-1,-1.468313326E0,1.701553203E0,2.423360133E0
7.804339208E0,-3.872254246E-1,-1.993324733E0,1.815982044E0,2.724165525E0
7.814365208E0,3.044352829E-1,-2.309122910E0,2.004260634E0,3.072749607E0
7.824390208E0,6.444818634E-1,-2.592294062E0,2.275476131E0,3.509007979E0
7.834416208E0,4.858650291E-1,-2.801976093E0,2.460978463E0,3.760791120E0
7.844442208E0,-8.779535830E-2,-2.898208691E0,2.426212673E0,3.780718129E0
7.854468208E0,-1.015697027E0,-2.922331379E0,2.169763150E0,3.778826969E0
7.864494208E0,-1.865520825E0,-2.768312210E0,1.833247703E0,3.808479694E0
7.874519208E0,-2.293563323E0,-2.541422117E0,1.494488094E0,3.735338506E0
7.884545208E0,-2.469468035E0,-2.271168779E0,1.168202936E0,3.552629744E0
7.894571208E0,-2.390600206E0,-1.896081005E0,1.287008418E0,3.311568086E0
7.904597208E0,-2.699109828E0,-1.365655953E0,1.354798843E0,3.314466768E0
7.914622208E0,-3.272442772E0,-9.823504291E-1,1.158084183E0,3.607638152E0
7.924648208E0,-3.643058596E0,-7.249880096E-1,1.003914449E0,3.847769193E0
7.934674208E0,-3.514926805E0,-3.454205371E-1,5.702317263E-1,3.577595563E0
7.944700208E0,-3.177796231E0,3.858599536E-2,1.078249955E-1,3.179859115E0
7.954725208E0,-2.827548598E0,2.514545390E-1,-6.251404434E-3,2.838714417E0
7.964751208E0,-2.509189340E0,4.828898927E-1,1.465429187E-2,2.555274651E0
7.974777208E0,-2.380680404E0,7.060164260E-1,-6.354593173E-2,2.483975939E0
7.984803208E0,-2.296244856E0,1.019979235E0,-2.171579880E-1,2.521954732E0
7.994829208E0,-2.072690599E0,1.336079713E0,-3.625033969E-1,2.492501561E0
8.004854208E0,-1.745983272E0,1.601881565E0,-4.387594213E-1,2.409770106E0
8.014880208E0,-1.319651084E0,1.731242441E0,-5.172762716E-1,2.237466003E0
8.024906208E0,-6.209292787E-1,1.788493991E0,-4.230595011E-1,1.939908056E0
8.034932208E0,7.386787534E-2,1.844946227E0,-3.534703258E-1,1.879953275E0
8.044957208E0,5.121967953E-1,1.761184717E0,-3.986934225E-1,1.876985245E0
8.054983208E0,7.932022852E-1,1.607721911E0,-5.729832798E-1,1.882086461E0
8.065009208E0,7.726645249E-1,1.382071865E0,-8.046191199E-1,1.776103892E0
8.075035208E0,5.033154595E-1,1.186925209E0,-1.031543712E0,1.651120932E0
8.085060208E0,2.505736560E-1,1.015293350E0,-1.227130591E0,1.612283235E0
8.095086208E0,3.191854692E-1,9.115869867E-1,-1.385280817E0,1.688748987E0
8.105112208E0,7.625330544E-1,7.720876240E-1,-1.521200514E0,1.868589565E0
8.115138208E0,1.320372630E0,4.316981044E-1,-1.682850884E0,2.182139829E0
8.125164208E0,1.896224554E0,-2.449910085E-1,-1.808853704E0,2.632041009E0
8.135189208E0,2.578428560E0,-1.086646776E0,-2.049583572E0,3.468412875E0
8.145215208E0,3.334991607E0,-2.035484766E0,-2.205718848E0,4.486709584E0
8.155241208E0,3.822317855E0,-2.844041839E0,-2.296622586E0,5.288966163E0
8.165267208E0,3.735933430E0,-3.527955571E0,-2.345528698E0,5.648466516E0
8.175292208E0,3.180437418E0,-4.153414688E0,-2.377267969E0,5.746080293E0
8.185318208E0,2.640431265E0,-4.673072238E0,-2.390423620E0,5.875679236E0
8.195344208E0,2.394201506E0,-5.064254181E0,-2.381467440E0,6.086892345E0
8.205370208E0,2.338741250E0,-5.264907818E0,-2.276106461E0,6.194322044E0
8.215395208E0,2.591135144E0,-4.998094690E0,-2.063162561E0,5.995962943E0
8.225421208E0,3.272959081E0,-4.322394542E0,-1.665879925E0,5.671905469E0
8.235447208E0,3.944427014E0,-3.603736655E0,-1.280606886E0,5.494121981E0
8.245473208E0,3.916458027E0,-2.926990440E0,-8.760345268E-1,4.967227900E0
8.255498208E0,2.861888126E0,-2.289268251E0,-4.548268390E-1,3.692969026E0
8.265524208E0,1.121737452E0,-1.488568373E0,-1.963939404E-1,1.874220183E0
8.275550208E0,-4.292832774E-1,-7.044988543E-1,1.711655803E-1,8.425558877E-1
8.285576208E0,-9.641275084E-1,-1.441324406E-1,5.907933505E-1,1.139891572E0
8.295601208E0,-9.351399368E-1,1.958560697E-1,1.254033630E0,1.576529938E0
8.305627208E0,-3.326673943E-1,4.196684449E-1,1.845478470E0,1.921608696E0
8.315653208E0,5.569391048E-1,5.513987218E-1,2.323174793E0,2.451808074E0
8.325679208E0,1.088271498E0,6.437116389E-1,2.758455559E0,3.034431841E0
8.335704208E0,1.332740076E0,7.371760190E-1,3.112341914E0,3.465010358E0
8.345730208E0,1.744339035E0,9.362536852E-1,3.303407872E0,3.851206720E0
8.355756208E0,1.881355669E0,1.106534253E0,3.356394171E0,4.003660704E0
8.365782208E0,1.335357875E0,1.155366544E0,3.322607789E0,3.762681892E0
8.375808208E0,4.123479867E-1,1.150601063E0,3.246561241E0,3.469016224E0
8.385833208E0,-5.188000560E-1,1.122814217E0,3.251309180E0,3.478631433E0
8.395859208E0,-1.414206993E0,1.048212224E0,3.390385205E0,3.820136401E0
8.405885208E0,-2.102765168E0,8.826801067E-1,3.624768505E0,4.282486689E0
8.415911208E0,-2.721297673E0,6.335058356E-1,3.795433527E0,4.712972133E0
8.425936208E0,-3.292622098E0,3.845959318E-1,3.805113008E0,5.046598787E0
8.435962208E0,-3.592171447E0,2.165058772E-1,3.765440819E0,5.208561708E0
8.445988208E0,-3.674775063E0,3.390661485E-2,3.570909802E0,5.124111458E0
8.456014208E0,-3.751779385E0,-2.143482912E-1,3.070336686E0,4.852706576E0
8.466039208E0,-3.804256976E0,-4.064771264E-1,2.527877626E0,4.585603568E0
8.476065208E0,-3.749048735E0,-6.782308958E-1,2.044027548E0,4.323587883E0
8.486091208E0,-3.393446222E0,-7.655835468E-1,1.670905023E0,3.859212228E0
8.496117208E0,-2.964402680E0,-8.856086116E-1,1.294708031E0,3.353841790E0
8.506142208E0,-2.344101393E0,-8.646824500E-1,1.172556188E0,2.759959256E0
8.516168208E0,-1.800680466E0,-7.991785781E-1,9.730679011E-1,2.197270507E0
8.526194208E0,-1.447913852E0,-7.545840570E-1,7.887379360E-1,1.813273050E0
8.536220208E0,-1.259832898E0,-6.964894114E-1,5.126242268E-1,1.528090321E0
8.546245208E0,-1.168440918E0,-7.224280255E-1,-5.136545062E-2,1.374698090E0
8.556271208E0,-1.006435037E0,-7.632756507E-1,-7.350973338E-1,1.461461355E0
8.566297208E0,-6.793453020E-1,-7.715263644E-1,-1.318635423E0,1.671993525E0
8.576323208E0,-2.921912134E-1,-7.220866942E-1,-1.881272054E0,2.036165377E0
8.586348208E0,-4.583983183E-2,-5.316956516E-1,-2.465125308E0,2.522230033E0
8.596374208E0,-1.821583092E-1,-3.617370827E-1,-3.086982540E0,3.113438062E0
8.606400208E0,-3.888983130E-1,-2.077970891E-1,-3.654097554E0,3.680604633E0
8.616426208E0,-5.951097286E-1,2.898342373E-2,-3.887903734E0,3.933292651E0
8.626452208E0,-8.216226768E-1,2.466579035E-1,-4.009965531E0,4.100698416E0
8.636477208E0,-9.424770230E-1,3.274175083E-1,-3.839493467E0,3.967010870E0
8.646503208E0,-7.640901679E-1,2.688896205E-1,-3.217416379E0,3.317816085E0
8.656529208E0,-2.250248319E-1,2.624687564E-1,-2.466698209E0,2.490808318E0
8.666555208E0,5.090638572E-1,4.178714859E-1,-2.190507317E0,2.287375110E0
8.676580208E0,9.493527639E-1,6.656395747E-1,-2.217156587E0,2.502025188E0
8.686606208E0,1.340837885E0,7.950261048E-1,-2.039355623E0,2.566882174E0
8.696632208E0,1.830800643E0,9.294072535E-1,-1.708600852E0,2.671131916E0
8.706658208E0,2.204537711E0,1.103621536E0,-1.414283592E0,2.842211303E0
8.716683208E0,2.345331062E0,1.014060976E0,-1.337259389E0,2.883948704E0
8.726708667E0,2.373869568E0,8.390761770E-1,-1.496755060E0,2.929092225E0
8.736734667E0,2.087312146E0,5.845259759E-1,-1.733336914E0,2.775427799E0
8.746760667E0,1.603436340E0,2.451090858E-1,-2.064338436E0,2.625372305E0
8.756785667E0,1.404877760E0,5.801735278E-2,-2.340542192E0,2.730418519E0
8.766811667E0,1.649709451E0,-1.011588956E-1,-2.357303821E0,2.879002553E0
8.776837667E0,2.524121960E0,-3.452061635E-1,-1.874714402E0,3.163054387E0
8.786863667E0,3.778473094E0,-3.945932087E-1,-1.370077472E0,4.038523864E0
8.796888667E0,4.885302485E0,-1.663970663E-1,-8.694412065E-1,4.964856127E0
8.806914667E0,5.598603737E0,3.164047161E-1,-1.482397807E-1,5.609496482E0
8.816940667E0,5.912688680E0,9.085109858E-1,6.285312438E-1,6.015008825E0
8.826966667E0,5.516295991E0,1.483057957E0,1.342392075E0,5.867793354E0
8.836991667E0,4.648149358E0,1.982128484E0,1.942518715E0,5.413640618E0
8.847017667E0,3.355222389E0,2.177533222E0,2.351930230E0,4.640123276E0
8.857043667E0,1.559145436E0,1.918123839E0,2.545220468E0,3.547996728E0
8.867069667E0,-9.985097212E-1,1.110879538E0,2.240150177E0,2.692461296E0
8.877094667E0,-2.959983355E0,1.229639119E-1,1.747211187E0,3.439384904E0
8.887120667E0,-3.465245937E0,-6.269732532E-1,1.481700819E0,3.820531662E0
8.897146667E0,-3.180795268E0,-1.409221657E0,1.512360109E0,3.793494077E0
8.907172667E0,-2.468868695E0,-2.232398524E0,1.682577235E0,3.729608821E0
8.917197667E0,-1.435096756E0,-3.012783420E0,1.868495303E0,3.824609958E0
8.927223667E0,-5.501253444E-1,-3.587895378E0,2.146861360E0,4.217184468E0
8.937249667E0,-1.710538620E-1,-3.835861469E0,2.516236989E0,4.590701604E0
8.947275667E0,-2.424659067E-1,-3.697357302E0,2.937204942E0,4.728256931E0
8.957300667E0,-6.657978880E-1,-3.245929157E0,3.060540846E0,4.510682120E0
8.967326667E0,-1.147449414E0,-2.624817153E0,3.099005000E0,4.220205828E0
8.977352667E0,-1.529806446E0,-1.911065665E0,3.007353403E0,3.877712499E0
8.987378667E0,-1.756252736E0,-1.167105194E0,2.541353704E0,3.302277526E0
8.997404667E0,-1.863081951E0,-5.688112915E-1,2.109037476E0,2.871003260E0
9.007429667E0,-1.880060511E0,-9.749091893E-2,1.813703384E0,2.614125470E0
9.017455667E0,-1.824655219E0,3.195671462E-1,1.603890084E0,2.450296560E0
9.027481667E0,-1.593657457E0,6.247833978E-1,1.398869162E0,2.210640928E0
9.037506667E0,-1.427259732E0,9.016522019E-1,1.178188811E0,2.058683053E0
9.047532667E0,-1.403016007E0,1.159440152E0,8.782640702E-1,2.020916416E0
9.057558667E0,-1.240678005E0,1.396839885E0,6.631976312E-1,1.982492036E0
9.067584667E0,-7.926935774E-1,1.816653012E0,3.808928901E-1,2.018333637E0
9.077610667E0,-4.294686341E-1,2.202249403E0,-7.653654913E-2,2.245039773E0
9.087635667E0,-4.078549862E-1,2.292054741E0,-6.081174445E-1,2.406172781E0
9.097661667E0,-6.950883454E-1,2.136080118E0,-1.140307624E0,2.519183907E0
9.107687667E0,-1.143796658E0,1.764884542E0,-1.575363858E0,2.627709940E0
9.117713667E0,-1.494789226E0,1.242112180E0,-1.718266300E0,2.594162018E0
9.127738667E0,-1.667254021E0,6.370291485E-1,-1.639145286E0,2.423291022E0
9.137764667E0,-1.797161027E0,5.278208479E-2,-1.413585434E0,2.287093676E0
9.147790667E0,-1.846734890E0,-5.713426973E-1,-1.172833346E0,2.261061762E0
9.157815667E0,-1.798509395E0,-1.147119338E0,-9.745460773E-1,2.345263072E0
9.167841667E0,-1.633703867E0,-1.635539016E0,-8.938685346E-1,2.478503007E0
9.177867667E0,-1.372871271E0,-1.779947555E0,-1.039491102E0,2.476596571E0
9.187893667E0,-1.128995601E0,-1.543545064E0,-1.382487602E0,2.359753039E0
9.197918667E0,-9.830069983E-1,-1.309695322E0,-1.759589742E0,2.403697289E0
9.207944667E0,-7.642790329E-1,-9.743497570E-1,-1.994519173E0,2.347676856E0
9.217970667E0,-4.795629001E-1,-6.668430778E-1,-2.112397871E0,2.266469729E0
9.227996667E0,-1.803509349E-1,-4.137255907E-1,-2.214478562E0,2.260002351E0
9.238022667E0,1.496524680E-1,-2.181467521E-1,-2.272508669E0,2.287854785E0
9.248047667E0,5.264990848E-1,-5.809135661E-2,-2.342158363E0,2.401308329E0
9.258073667E0,1.104256616E0,3.980886742E-2,-2.381139411E0,2.625031869E0
9.268099667E0,1.892460117E0,7.699182339E-2,-2.303328173E0,2.982055282E0
9.278124667E0,2.724128310E0,1.318744473E-2,-2.076722839E0,3.425467371E0
9.288150667E0,3.295284920E0,9.082991704E-3,-1.860329082E0,3.784152415E0
9.298176667E0,3.339024432E0,-8.914504185E-2,-1.853249273E0,3.819890556E0
9.308202667E0,3.022778943E0,-3.015783334E-1,-2.058806970E0,3.669717723E0
9.318227667E0,2.718030834E0,-4.537323864E-1,-2.364513438E0,3.631045096E0
9.328253667E0,2.642290680E0,-8.020586242E-1,-2.608950441E0,3.798897271E0
9.338279667E0,2.857540721E0,-1.379319581E0,-2.767241585E0,4.210188532E0
9.348305667E0,3.147105950E0,-2.094709459E0,-2.873789549E0,4.748762992E0
9.358330667E0,3.406213033E0,-2.792180545E0,-2.993510120E0,5.325379072E0
9.368356667E0,3.849468817E0,-3.150456112E0,-2.594656337E0,5.610349846E0
9.378382667E0,3.935619938E0,-3.258477282E0,-1.869635510E0,5.440800992E0
9.388408667E0,3.757983280E0,-3.182797939E0,-1.201360742E0,5.069113205E0
9.398434667E0,3.117983308E0,-2.793426002E0,-6.315367126E-1,4.233661223E0
9.408459667E0,1.768519610E0,-2.432099942E0,1.004575038E-1,3.008797675E0
9.418485667E0,-2.174357307E-1,-2.179884534E0,9.235408151E-1,2.377415091E0
9.428511667E0,-1.785598742E0,-2.097346553E0,1.605822004E0,3.188399244E0
9.438536667E0,-2.336827456E0,-2.151628303E0,2.176535980E0,3.850659136E0
9.448562667E0,-1.704897811E0,-2.094583451E0,2.807906631E0,3.895933268E0
9.458588667E0,-4.657049990E-1,-1.946545107E0,3.529557123E0,4.057547595E0
9.468614667E0,4.533018851E-1,-1.775845002E0,4.062599827E0,4.456885171E0
9.478639667E0,7.479068291E-1,-1.570617088E0,4.283494771E0,4.623259685E0
9.488665667E0,5.182831621E-1,-1.240678443E0,4.159498715E0,4.371421965E0
9.498691667E0,-5.618706465E-2,-8.330796381E-1,3.846304303E0,3.935890682E0
9.508717667E0,-8.150626856E-1,-5.733042920E-1,3.338141502E0,3.483704017E0
9.518742667E0,-1.234869381E0,-4.280197672E-1,2.647750225E0,2.952741872E0
9.528768667E0,-1.473732818E0,-2.391226150E-1,2.333886892E0,2.770576847E0
9.538794667E0,-1.651938994E0,-7.849221893E-2,2.324918432E0,2.853122708E0
9.548820667E0,-1.676445259E0,8.824778661E-2,2.482882133E0,2.997158665E0
9.558845667E0,-1.610462354E0,3.720089230E-1,2.566037725E0,3.052299009E0
9.568871667E0,-1.749872255E0,5.922242738E-1,2.611664134E0,3.198995474E0
9.578897667E0,-2.210791892E0,6.291800655E-1,2.654008500E0,3.511015446E0
9.588923667E0,-2.708263645E0,5.855120723E-1,2.452165539E0,3.700085430E0
9.598948667E0,-3.239566217E0,4.689882836E-1,2.199758196E0,3.943814829E0
9.608974667E0,-3.570598730E0,2.920431692E-1,1.959203160E0,4.083251342E0
9.619000667E0,-3.608780463E0,7.566297054E-2,1.826885347E0,4.045556994E0
9.629026667E0,-3.364525893E0,-4.476171490E-2,1.710696495E0,3.774721261E0
9.639051667E0,-3.015321404E0,-1.315562491E-1,1.575238289E0,3.404533137E0
9.649077667E0,-2.713654193E0,-2.065541355E-1,1.436503011E0,3.077356754E0
9.659103667E0,-2.417081076E0,-2.241957333E-1,1.081828013E0,2.657611052E0
9.669129667E0,-2.061463945E0,-2.207400654E-1,5.636359209E-1,2.148498365E0
9.679154667E0,-1.726130805E0,-2.590920259E-1,1.282835260E-2,1.745514480E0
9.689180667E0,-1.341390447E0,-3.896317001E-1,-6.974552983E-1,1.561276749E0
9.699206667E0,-8.925827318E-1,-4.377553812E-1,-1.237843274E0,1.587636507E0
9.709232667E0,-6.822127765E-1,-5.191162076E-1,-1.617255650E0,1.830412999E0
9.719257417E0,-5.810565305E-1,-6.529520669E-1,-2.117973776E0,2.291241150E0
9.729283417E0,-3.607182419E-1,-7.046340711E-1,-2.554194775E0,2.674048947E0
9.739309417E0,-1.512581134E-1,-7.269805214E-1,-3.033591029E0,3.123148128E0
9.749335417E0,-1.612071508E-1,-7.647316074E-1,-3.732704013E0,3.813644114E0
9.759360417E0,-4.284213978E-1,-7.889392264E-1,-3.945192415E0,4.046049083E0
9.769386417E0,-7.098619205E-1,-8.168192623E-1,-3.680277877E0,3.836084320E0
9.779412417E0,-7.618524384E-1,-9.071448570E-1,-3.248537600E0,3.457792282E0
9.789438417E0,-4.992563224E-1,-9.946393760E-1,-2.838245494E0,3.048639344E0
9.799463417E0,-1.024163210E-1,-9.803361364E-1,-2.473354679E0,2.662523505E0
9.809489417E0,4.173654824E-1,-6.676900470E-1,-2.097494488E0,2.240421182E0
9.819515417E0,9.876444250E-1,-1.498813134E-1,-1.475089810E0,1.781515048E0
9.829541417E0,1.355572284E0,5.111802569E-1,-6.623502235E-1,1.592981259E0
9.839566417E0,1.679158952E0,1.179383689E0,8.627924837E-2,2.053768434E0
9.849592417E0,1.986672210E0,1.738877150E0,4.049921894E-1,2.671063250E0
9.859618417E0,1.948334940E0,1.965138815E0,1.496922290E-1,2.771315096E0
9.869643417E0,1.972265255E0,2.215863621E0,-5.355417307E-1,3.014413171E0
9.879669417E0,2.179973558E0,2.426790962E0,-1.308108680E0,3.514647551E0
9.889695417E0,2.349650985E0,2.615023359E0,-1.843908931E0,3.969786778E0
9.899721417E0,2.091510447E0,2.513178311E0,-2.090370240E0,3.880738192E0
9.909746417E0,1.417729940E0,1.957012062E0,-2.055157138E0,3.172305984E0
9.919772417E0,9.407392305E-1,1.010787705E0,-1.900417593E0,2.349099638E0
9.929798417E0,1.393143568E0,-7.215500660E-2,-1.735010387E0,2.226278596E0
9.939824417E0,2.487190361E0,-1.108248072E0,-1.617656622E0,3.167197914E0
9.949849417E0,3.473313341E0,-2.020912481E0,-1.546591025E0,4.305802668E0
9.959875417E0,3.556217503E0,-2.459703185E0,-1.327866422E0,4.523278890E0
9.969901417E0,3.127853408E0,-2.238256411E0,-7.368146610E-1,3.916140261E0
9.979927417E0,3.095851012E0,-1.501756476E0,3.448218553E-1,3.458101808E0
9.989952417E0,3.154899119E0,-7.304273819E-1,1.435069274E0,3.542080805E0
9.999978417E0,2.373269058E0,-5.636328145E-1,2.399925345E0,3.421948222E0
1.001000442E1,1.033906426E0,-7.276897155E-1,2.860359664E0,3.127323492E0
1.002003042E1,-1.675847089E-1,-7.959857791E-1,2.693377218E0,2.813531382E0
1.003005542E1,-1.443158897E0,-9.383508622E-1,2.299601304E0,2.872520861E0
1.004008142E1,-2.262300600E0,-1.358142720E0,1.897454370E0,3.250059805E0
1.005010742E1,-2.199961095E0,-2.021901976E0,1.714504348E0,3.444915322E0
1.006013342E1,-1.514948087E0,-2.684851101E0,1.630771050E0,3.487536001E0
1.007015842E1,-6.060282344E-1,-3.224324280E0,1.820411310E0,3.751990755E0
1.008018442E1,2.672218484E-1,-3.597697651E0,2.125929497E0,4.187411149E0
1.009021042E1,8.172559762E-1,-3.716699599E0,2.480307019E0,4.542431744E0
1.010023642E1,9.811171782E-1,-3.625091271E0,2.575857539E0,4.554000407E0
1.011026142E1,6.727303469E-1,-3.360665854E0,2.612532445E0,4.309520493E0
1.012028742E1,-9.391154587E-2,-2.937077472E0,2.732692727E0,4.012836029E0
1.013031342E1,-9.765774000E-1,-2.329444470E0,2.808786052E0,3.777471912E0
1.014033842E1,-1.765059228E0,-1.771840390E0,3.002014310E0,3.907293483E0
1.015036442E1,-2.455186796E0,-1.286534793E0,3.223847147E0,4.251623737E0
1.016039042E1,-3.008569624E0,-8.739060672E-1,3.247628943E0,4.512460166E0
1.017041642E1,-3.278975866E0,-5.114870895E-1,3.146163379E0,4.572925298E0
1.018044142E1,-3.253559189E0,-1.686783575E-1,3.011356992E0,4.436481795E0
1.019046742E1,-3.108040702E0,1.640689243E-1,2.829312118E0,4.206167220E0
1.020049342E1,-2.865494104E0,4.588691653E-1,2.498482504E0,3.829364463E0
1.021051942E1,-2.525608907E0,7.575139506E-1,2.175004009E0,3.418065268E0
1.022054442E1,-2.181014362E0,1.138586204E0,1.852746413E0,3.079914197E0
1.023057042E1,-1.986966909E0,1.406824883E0,1.405585274E0,2.811203250E0
1.024059642E1,-1.765220611E0,1.555693970E0,8.728887248E-1,2.509605997E0
1.025062242E1,-1.472338257E0,1.673663739E0,3.221768681E-1,2.252271784E0
1.026064742E1,-1.158319387E0,1.640943305E0,-1.992438734E-1,2.018439212E0
1.027067342E1,-8.399946284E-1,1.464002612E0,-6.743968034E-1,1.817609879E0
1.028069942E1,-6.142640376E-1,1.187050997E0,-1.016034411E0,1.678909260E0
1.029072542E1,-4.849095941E-1,8.015686275E-1,-1.169533178E0,1.498485046E0
1.030075042E1,-4.982429999E-1,3.221866988E-1,-1.160171785E0,1.303092064E0
1.031077642E1,-5.038189048E-1,-1.724848218E-1,-1.126663731E0,1.246176419E0
1.032080242E1,-4.030497444E-1,-6.451947851E-1,-1.058084078E0,1.303175860E0
1.033082842E1,-2.962064964E-1,-1.101354351E0,-1.065555650E0,1.560810218E0
1.034085342E1,-2.578470075E-1,-1.451888205E0,-1.173676515E0,1.884669998E0
1.035087942E1,-2.592912698E-1,-1.614075203E0,-1.370535893E0,2.133269640E0
1.036090542E1,-3.985625911E-1,-1.518142713E0,-1.668078479E0,2.290435602E0
1.037093142E1,-6.648646724E-1,-1.256943497E0,-2.086313442E0,2.524808065E0
1.038095642E1,-7.777451706E-1,-8.755458458E-1,-2.522045614E0,2.780680161E0
1.039098242E1,-5.927287424E-1,-5.705267183E-1,-2.995740248E0,3.106652174E0
1.040100842E1,-1.481286836E-1,-3.427501868E-1,-3.578308868E0,3.597737366E0
1.041103342E1,4.970466596E-1,-3.125152579E-1,-4.056856692E0,4.099122758E0
1.042105942E1,1.208061066E0,-4.817940514E-1,-4.257553014E0,4.451774333E0
1.043108542E1,1.825583172E0,-6.400292087E-1,-4.225144236E0,4.646959772E0
1.044111142E1,2.156709825E0,-7.102813120E-1,-3.913396425E0,4.524441225E0
1.045113642E1,2.129252470E0,-6.609292039E-1,-3.430274910E0,4.091128139E0
1.046116242E1,1.768578667E0,-4.341907724E-1,-3.094228410E0,3.590353963E0
1.047118842E1,1.356331837E0,-1.109757677E-2,-3.059046882E0,3.346270616E0
1.048121442E1,1.177315237E0,7.054737313E-1,-3.162494652E0,3.447482673E0
1.049123942E1,1.016678774E0,1.451781932E0,-3.252524232E0,3.704081585E0
1.050126542E1,5.512988806E-1,1.755770341E0,-3.200261818E0,3.691657575E0
1.051129142E1,4.250808835E-2,1.369507368E0,-2.973731328E0,3.274207596E0
1.052131742E1,1.375194955E-1,5.830031417E-1,-2.892228159E0,2.953605931E0
1.053134242E1,7.745303714E-1,-4.384303692E-1,-2.838396353E0,2.974661718E0
1.054136842E1,1.395785340E0,-1.691270144E0,-2.430015117E0,3.273161298E0
1.055139442E1,1.578185139E0,-2.830203819E0,-1.700288305E0,3.659467490E0
1.056142042E1,1.413795934E0,-3.808129294E0,-9.011143311E-1,4.160850238E0
1.057144542E1,1.497254997E0,-4.373928685E0,-1.113274046E-1,4.624437096E0
1.058147142E1,1.817858416E0,-4.717523356E0,7.803132677E-1,5.115518021E0
1.059149742E1,2.193387655E0,-4.911310900E0,1.469945576E0,5.576079640E0
1.060152342E1,2.031539065E0,-4.950929294E0,2.151859560E0,5.767959034E0
1.061154842E1,1.627721581E0,-4.869109498E0,2.751190978E0,5.824667943E0
1.062157442E1,1.251453254E0,-4.424039615E0,3.169199070E0,5.584092093E0
1.063160042E1,6.935359097E-1,-3.597299455E0,3.412963643E0,5.006982750E0
1.064162542E1,-2.275134069E-1,-2.993321255E0,3.565843774E0,4.661220474E0
1.065165142E1,-9.169662058E-1,-2.776909372E0,3.658934956E0,4.684000180E0
1.066167742E1,-9.529154724E-1,-2.724399621E0,3.693730567E0,4.687648311E0
1.067170342E1,-6.673427224E-2,-2.671608619E0,3.747168270E0,4.602522800E0
1.068172842E1,1.106830561E0,-2.472564136E0,3.770773480E0,4.642992562E0
1.069175442E1,1.837594523E0,-1.974069998E0,3.605409544E0,4.502519735E0
1.070178042E1,1.711089427E0,-1.423431853E0,3.227114571E0,3.920236437E0
1.071180642E1,7.603806943E-1,-9.213233317E-1,2.740625060E0,2.989655699E0
1.072183179E1,-5.360066575E-1,-4.782659145E-1,2.234635084E0,2.347261251E0
1.073185779E1,-1.587807317E0,-2.686125355E-1,1.939498043E0,2.520900123E0
1.074188379E1,-2.298400725E0,-2.596303352E-1,1.590546738E0,2.807114662E0
1.075190979E1,-2.589848172E0,-1.900183192E-1,1.572704544E0,3.035921623E0
1.076193479E1,-2.797465843E0,-3.519041856E-1,1.517861170E0,3.202117148E0
1.077196079E1,-2.904873932E0,-6.641634451E-1,1.486653410E0,3.330096696E0
1.078198679E1,-2.819588199E0,-1.038110574E0,1.494455935E0,3.355763656E0
1.079201179E1,-2.580818317E0,-1.434325508E0,1.485527236E0,3.305254002E0
1.080203779E1,-2.319970518E0,-1.737576437E0,1.354333259E0,3.199320812E0
1.081206379E1,-2.208938325E0,-1.984538122E0,1.181564409E0,3.195918418E0
1.082208979E1,-2.116545886E0,-2.257613764E0,1.054904362E0,3.269466257E0
1.083211479E1,-1.883798051E0,-2.372071987E0,8.831891799E-1,3.155224832E0
1.084214079E1,-1.533800095E0,-2.274615275E0,6.587309432E-1,2.821408129E0
1.085216679E1,-1.213136449E0,-1.959492305E0,2.774118094E-1,2.321264192E0
1.086219279E1,-9.962883639E-1,-1.571218767E0,-6.927192729E-2,1.861751196E0
1.087221779E1,-8.190066326E-1,-1.224667086E0,-2.184929073E-1,1.489402728E0
1.088224379E1,-6.388229281E-1,-7.505177571E-1,-1.394069584E-1,9.953923534E-1
1.089226979E1,-5.302886653E-1,-2.090540760E-1,-1.103601655E-2,5.701153119E-1
1.090229579E1,-5.202472419E-1,2.544470343E-1,1.152030122E-1,5.904847331E-1
1.091232079E1,-6.257239956E-1,6.422591905E-1,1.408933572E-1,9.076774342E-1
1.092234679E1,-8.500038922E-1,9.369152246E-1,6.568060398E-2,1.266740185E0
1.093237279E1,-9.343283433E-1,1.181665785E0,-2.006471868E-1,1.519724572E0
1.094239879E1,-9.333764166E-1,1.330972609E0,-5.734130136E-1,1.723798743E0
1.095242379E1,-9.164387870E-1,1.295358242E0,-8.685699713E-1,1.808929744E0
1.096244979E1,-7.132796180E-1,1.081809228E0,-1.063281083E0,1.676199774E0
1.097247579E1,-3.648440373E-1,8.487302224E-1,-1.269065506E0,1.569707431E0
1.098250079E1,1.170817226E-1,6.772983380E-1,-1.431446339E0,1.587916808E0
1.099252679E1,9.887875557E-1,8.625851268E-1,-1.252402257E0,1.813908858E0
1.100255279E1,1.802566193E0,1.323505569E0,-7.857570255E-1,2.370300819E0
1.101257879E1,2.123366078E0,1.877310858E0,-9.579563570E-1,2.991765355E0
1.102260379E1,2.075798979E0,2.200247462E0,-1.818279415E0,3.529330011E0
1.103262979E1,1.746527063E0,2.058894678E0,-2.853297397E0,3.928194256E0
1.104265579E1,1.479279487E0,1.620407737E0,-3.711088611E0,4.311167790E0
1.105268179E1,1.164347867E0,9.835931817E-1,-4.294829013E0,4.557270867E0
1.106270679E1,3.846514803E-1,2.264689845E-1,-4.561883047E0,4.583669043E0
1.107273279E1,-3.912453854E-1,-8.533033298E-1,-4.505112430E0,4.601873263E0
1.108275879E1,-6.480527580E-2,-2.447317905E0,-4.170613103E0,4.836070544E0
1.109278479E1,1.339729253E0,-3.976454553E0,-3.591030071E0,5.522912479E0
1.110280979E1,2.703813913E0,-4.769721158E0,-2.890140703E0,6.197883742E0
1.111283579E1,3.114559178E0,-4.892339024E0,-2.073619283E0,6.159168526E0
1.112286179E1,2.644596822E0,-4.426627593E0,-1.125200758E0,5.277783715E0
1.113288779E1,2.748489565E0,-3.438665079E0,-1.240534309E-2,4.402132019E0
1.114291279E1,3.741480684E0,-2.141893858E0,1.157653901E0,4.463916393E0
1.115293879E1,4.253182805E0,-9.135262889E-1,2.103466834E0,4.832045837E0
1.116296479E1,3.700558360E0,-1.861576585E-1,2.728469868E0,4.601449192E0
1.117298979E1,2.274594955E0,-9.419374712E-2,3.059808190E0,3.813801362E0
1.118301579E1,7.497206354E-1,-3.609772736E-1,3.063432294E0,3.174429562E0
1.119304179E1,-6.408296925E-1,-9.866268633E-1,2.700731846E0,2.945852638E0
1.120306779E1,-1.402635353E0,-1.656412699E0,2.527512760E0,3.331577662E0
1.121309279E1,-1.479703994E0,-2.156083881E0,2.682365742E0,3.746105656E0
1.122311879E1,-1.220707424E0,-2.513850741E0,2.776119998E0,3.939088017E0
1.123314479E1,-1.018836982E0,-2.760390987E0,2.898320957E0,4.130139413E0
1.124317079E1,-9.071212488E-1,-2.946250584E0,2.942336458E0,4.261526170E0
1.125319579E1,-9.250493968E-1,-2.909964518E0,2.909166373E0,4.217446961E0
1.126322179E1,-1.183903295E0,-2.500411208E0,2.801123861E0,3.937001156E0
1.127324779E1,-1.465915675E0,-1.918059812E0,2.645545825E0,3.581448718E0
1.128327379E1,-1.529963152E0,-1.385483716E0,2.615723855E0,3.332020957E0
1.129329879E1,-1.479280656E0,-8.464163330E-1,2.616450080E0,3.122579525E0
1.130332479E1,-1.384006709E0,-2.856578270E-1,2.474899514E0,2.849947818E0
1.131335079E1,-1.348556210E0,2.699608304E-1,2.334728891E0,2.709694022E0
1.132337579E1,-1.506694157E0,7.426485743E-1,2.212454256E0,2.777878331E0
1.133340179E1,-1.698405063E0,1.101600226E0,2.097837135E0,2.915308467E0
1.134342779E1,-1.706733252E0,1.436505642E0,1.925065945E0,2.946585439E0
1.135345379E1,-1.733667281E0,1.650410970E0,1.693212150E0,2.931966234E0
1.136347879E1,-1.626659727E0,1.659453543E0,1.444268113E0,2.736004077E0
1.137350479E1,-1.122404619E0,1.640380218E0,1.048739058E0,2.247330194E0
1.138353079E1,-5.487530029E-1,1.644620765E0,4.306801772E-1,1.786446958E0
1.139355679E1,-1.942404109E-1,1.564067914E0,-2.905914334E-1,1.602648171E0
1.140358179E1,-1.462704384E-1,1.336125029E0,-9.604928792E-1,1.652020492E0
1.141360779E1,-3.058789605E-1,9.658460051E-1,-1.519235265E0,1.826060304E0
1.142363379E1,-4.914982367E-1,5.662594204E-1,-1.879312652E0,2.023372505E0
1.143365979E1,-6.352087641E-1,1.510790424E-1,-2.096907427E0,2.196209418E0
1.144368479E1,-8.023666263E-1,-3.464869961E-1,-2.142691126E0,2.314080963E0
1.145371079E1,-1.037113039E0,-9.399048328E-1,-2.035815718E0,2.470540465E0
1.146373679E1,-1.129792576E0,-1.357320017E0,-1.999249570E0,2.667535893E0
1.147376179E1,-1.069367450E0,-1.559621838E0,-1.991091535E0,2.745981158E0
1.148378779E1,-1.130270879E0,-1.611552129E0,-2.003452549E0,2.808635726E0
1.149381379E1,-1.302547393E0,-1.484600599E0,-2.162033715E0,2.928320071E0
1.150383979E1,-1.545741279E0,-1.179178014E0,-2.439140282E0,3.119163702E0
1.151386479E1,-1.481106157E0,-7.110734636E-1,-2.795918670E0,3.242909515E0
1.152389079E1,-9.592526847E-1,-2.140756282E-1,-3.145130761E0,3.295123911E0
1.153391679E1,-3.802350783E-1,2.173518232E-1,-3.420348676E0,3.448275743E0
1.154394279E1,6.021988928E-2,6.262442516E-1,-3.683603189E0,3.736942701E0
1.155396779E1,5.923159289E-1,1.114833279E0,-3.880746742E0,4.080917382E0
1.156399379E1,1.139838093E0,1.616093515E0,-3.893671428E0,4.367111897E0
1.157401979E1,1.638784513E0,1.889057037E0,-3.752671670E0,4.509622582E0
1.158404479E1,2.171719043E0,1.788139504E0,-3.542052623E0,4.523266880E0
1.159407079E1,2.800426288E0,1.412848685E0,-3.323380791E0,4.569834645E0
1.160409679E1,3.031179637E0,8.756320922E-1,-3.087216429E0,4.414259488E0
1.161412279E1,2.315542422E0,1.524415167E-1,-2.933158668E0,3.740106268E0
1.162414779E1,1.293611678E0,-7.077290024E-1,-2.840877911E0,3.200765349E0
1.163417379E1,1.144274375E0,-2.024968256E0,-2.566682088E0,3.463772110E0
1.164419979E1,2.171648292E0,-3.142700658E0,-2.197677172E0,4.407086190E0
1.165422579E1,3.487454247E0,-3.626142016E0,-2.102330135E0,5.452617265E0
1.166425079E1,4.361321211E0,-3.708430174E0,-1.910942581E0,6.035335832E0
1.167427679E1,4.969760837E0,-3.593670089E0,-1.496994796E0,6.313000943E0
1.168430279E1,4.760032321E0,-3.548429596E0,-9.928606530E-1,6.019554184E0
1.169432879E1,3.861398891E0,-3.673218534E0,-1.539291215E-1,5.331662964E0
1.170435379E1,2.764424981E0,-3.714813872E0,6.820975864E-1,4.680506885E0
1.171437979E1,1.731697939E0,-3.811557809E0,1.644621788E0,4.497947478E0
1.172440571E1,1.114251847E0,-3.595302047E0,2.667964050E0,4.613652149E0
1.173443071E1,4.681427032E-1,-3.087185731E0,3.426393528E0,4.635735749E0
1.174445671E1,-5.517064315E-1,-2.803819720E0,3.867967068E0,4.809049204E0
1.175448271E1,-1.338114252E0,-2.607325500E0,4.111145750E0,5.048783556E0
1.176450871E1,-1.446211143E0,-2.314551319E0,4.212904844E0,5.019685419E0
1.177453371E1,-8.214390743E-1,-2.047960824E0,4.239646500E0,4.779488271E0
1.178455971E1,-2.484388375E-1,-1.870947187E0,4.298066032E0,4.694202472E0
1.179458571E1,-3.753789657E-1,-1.777542741E0,4.280068302E0,4.649683025E0
1.180461171E1,-1.034474190E0,-1.720219270E0,3.917404107E0,4.401743532E0
1.181463671E1,-1.711393483E0,-1.714219296E0,3.544250007E0,4.292915508E0
1.182466271E1,-2.245209188E0,-1.761281634E0,3.239488449E0,4.317101193E0
1.183468871E1,-2.615495229E0,-1.975519377E0,2.982134947E0,4.431322708E0
1.184471471E1,-3.006501464E0,-2.305760907E0,2.811833621E0,4.718261621E0
1.185473971E1,-3.245368994E0,-2.626642654E0,2.835124251E0,5.046741627E0
1.186476571E1,-3.149805610E0,-2.815436383E0,3.053398472E0,5.212600084E0
1.187479171E1,-2.922495101E0,-2.840639637E0,3.187733574E0,5.174152733E0
1.188481671E1,-2.802838265E0,-2.722509801E0,3.066616688E0,4.967101757E0
1.189484271E1,-2.806261809E0,-2.613120675E0,2.699207477E0,4.689267108E0
1.190486871E1,-2.803824105E0,-2.388091750E0,2.526171994E0,4.466089650E0
1.191489471E1,-2.670477768E0,-1.951169524E0,2.001438183E0,3.865781786E0
1.192491971E1,-2.292044801E0,-1.508423471E0,1.294567698E0,3.033927531E0
1.193494571E1,-1.957621488E0,-1.128725240E0,8.467744750E-1,2.413157593E0
1.194497171E1,-1.612870238E0,-7.356003405E-1,5.988893688E-1,1.871129803E0
1.195499771E1,-1.067280579E0,-3.257332909E-1,7.170498113E-2,1.118182281E0
1.196502271E1,-5.979906517E-1,3.599603286E-2,-3.123787254E-1,6.756248974E-1
1.197504871E1,-5.595235741E-1,1.921606294E-1,-6.244440401E-1,8.601875939E-1
1.198507471E1,-6.604827690E-1,2.649727169E-1,-9.611723256E-1,1.195951616E0
1.199509971E1,-6.713965970E-1,3.347234946E-1,-1.172878954E0,1.392285262E0
1.200512571E1,-6.165789503E-1,4.323099058E-1,-1.209035797E0,1.424369691E0
1.201515171E1,-4.866549879E-1,6.485472132E-1,-1.320372630E0,1.549461341E0
1.202517771E1,-4.595701003E-1,9.025099884E-1,-1.460311704E0,1.777143559E0
1.203520271E1,-8.103188396E-1,1.087718425E0,-1.532018448E0,2.046174117E0
1.204522871E1,-1.379175155E0,1.222555071E0,-1.676863335E0,2.491713397E0
1.205525471E1,-1.680092753E0,1.217555263E0,-1.786626098E0,2.738098846E0
1.206528071E1,-1.351836498E0,9.671698878E-1,-1.733377844E0,2.401557465E0
1.207530571E1,-5.503867149E-1,5.008833467E-1,-1.651064250E0,1.811028112E0
1.208533171E1,2.719002056E-1,2.617809411E-2,-1.579694306E0,1.603137272E0
1.209535771E1,8.220197028E-1,-2.020246995E-1,-1.535595775E0,1.753449387E0
1.210538271E1,1.316636260E0,-2.842842246E-2,-1.209722333E0,1.788230225E0
1.211540871E1,1.765850356E0,3.935786437E-1,-6.768070257E-1,1.931631274E0
1.212543471E1,2.137093002E0,7.761849142E-1,-1.508464329E-1,2.278680356E0
1.213546071E1,2.515782661E0,1.066668741E0,-1.229809785E-1,2.735337076E0
1.214548571E1,2.538993183E0,8.749507454E-1,-8.658931160E-1,2.821665480E0
1.215551171E1,2.172655767E0,2.696322351E-1,-2.126647536E0,3.052173712E0
1.216553771E1,1.670498641E0,-5.005061282E-1,-3.417108150E0,3.836365494E0
1.217556371E1,1.397715506E0,-1.336491796E0,-4.750500190E0,5.129041920E0
1.218558871E1,8.803521109E-1,-2.183849238E0,-5.006538069E0,5.532598013E0
1.219561471E1,-1.499050677E-2,-3.229188871E0,-3.842536358E0,5.019260019E0
1.220564071E1,-6.591455108E-1,-4.140451410E0,-2.299951991E0,4.782006885E0
1.221566671E1,-9.040304106E-1,-4.682235409E0,-1.390000105E0,4.967162138E0
1.222569171E1,-1.174682236E0,-4.722721823E0,-1.380959140E0,5.058757547E0
1.223571771E1,-9.345756805E-1,-4.338677576E0,-1.663787792E0,4.739804281E0
1.224574371E1,2.985506451E-1,-3.932575585E0,-1.650265521E0,4.275237948E0
1.225576871E1,2.073858288E0,-3.533037094E0,-1.219372578E0,4.274354780E0
1.226579471E1,3.997921436E0,-2.747924431E0,-3.836556995E-1,4.866380193E0
1.227582071E1,5.443578263E0,-1.519066573E0,7.319392526E-1,5.698757990E0
1.228584671E1,5.834235418E0,-2.634150186E-1,1.709922323E0,6.085353296E0
1.229587171E1,5.077478244E0,6.230889478E-1,2.356652587E0,5.632302954E0
1.230589771E1,4.357703539E0,1.326831465E0,2.841690674E0,5.368916814E0
1.231592371E1,3.649974098E0,1.918123839E0,3.253141698E0,5.252089192E0
1.232594971E1,1.972739464E0,2.181192410E0,3.483647125E0,4.559067735E0
1.233597471E1,-9.372618914E-2,2.101994797E0,3.100573808E0,3.747095497E0
1.234600071E1,-1.881214167E0,1.837409897E0,2.456441023E0,3.598491958E0
1.235602671E1,-3.363865158E0,1.185484894E0,1.814712614E0,4.001767747E0
1.236605171E1,-4.062935457E0,4.572019780E-1,1.510754464E0,4.358767857E0
1.237607771E1,-3.817334858E0,-3.257958926E-1,1.797449294E0,4.231904104E0
1.238610371E1,-2.830321348E0,-1.156035684E0,2.360927925E0,3.862786313E0
1.239612971E1,-1.444987321E0,-1.780387704E0,2.945648321E0,3.732909423E0
1.240615471E1,-2.710359871E-2,-2.195249701E0,3.396953967E0,4.044644868E0
1.241618071E1,1.000552738E0,-2.244588653E0,3.735776725E0,4.471611761E0
1.242620671E1,9.925905848E-1,-1.802567362E0,3.722711706E0,4.253594669E0
1.243623271E1,2.000595599E-1,-9.818223524E-1,3.296301166E0,3.445228633E0
1.244625771E1,-6.865730453E-1,-1.400836457E-1,2.687064564E0,2.776926709E0
1.245628371E1,-1.339510567E0,5.250399122E-1,2.179902806E0,2.611882791E0
1.246630971E1,-1.659202990E0,1.013512946E0,1.789107656E0,2.642171315E0
1.247633471E1,-1.755089725E0,1.318603555E0,1.538892435E0,2.680903804E0
1.248636071E1,-1.557425770E0,1.647512213E0,1.478244529E0,2.706488206E0
1.249638671E1,-1.287068059E0,2.052069808E0,1.429538392E0,2.812670386E0
1.250641271E1,-1.338451052E0,2.204472222E0,1.334258598E0,2.903686450E0
1.251643771E1,-1.466030281E0,2.136029539E0,1.333489689E0,2.913771049E0
1.252646371E1,-1.300874505E0,1.931992119E0,1.227224146E0,2.632669202E0
1.253648971E1,-7.071406263E-1,2.021344444E0,7.115394866E-1,2.256583628E0
1.254651471E1,-5.254307985E-2,2.171668903E0,-1.538987160E-1,2.177749163E0
1.255654071E1,-7.985367000E-2,1.732918107E0,-1.040571667E0,2.022911557E0
1.256656671E1,-4.032953274E-1,1.046080036E0,-1.604932058E0,1.957737846E0
1.257659271E1,-6.425610530E-1,3.094255891E-1,-1.954501998E0,2.080554485E0
1.258661771E1,-7.072300887E-1,-4.009353912E-1,-2.242926435E0,2.385716366E0
1.259664371E1,-5.857068211E-1,-9.826976806E-1,-2.375508542E0,2.636624366E0
1.260666971E1,-6.186067647E-1,-1.511626868E0,-2.427827089E0,2.926095434E0
1.261669571E1,-8.204754531E-1,-1.949097271E0,-2.574727857E0,3.331873899E0
1.262672071E1,-1.162204862E0,-2.254452467E0,-2.694556017E0,3.700528097E0
1.263674671E1,-1.417465646E0,-2.336739602E0,-2.653655913E0,3.809389784E0
1.264677271E1,-1.488985865E0,-2.260300267E0,-2.486267670E0,3.675263682E0
1.265679771E1,-1.286894397E0,-2.001919117E0,-2.160116998E0,3.214013501E0
1.266682371E1,-8.898041350E-1,-1.452339610E0,-1.813740807E0,2.488111222E0
1.267684971E1,-6.722619849E-1,-9.600144307E-1,-1.554958245E0,1.947166923E0
1.268687571E1,-6.938674468E-1,-5.486870755E-1,-1.419482936E0,1.672555334E0
1.269690071E1,-6.789856982E-1,-1.265331620E-1,-1.354514523E0,1.520441321E0
1.270692671E1,-5.910137540E-1,2.346882328E-1,-1.381752023E0,1.521057026E0
1.271695271E1,-4.139793599E-1,6.529784524E-1,-1.536276391E0,1.719856075E0
1.272697921E1,-1.457272321E-1,1.086810279E0,-1.777692722E0,2.088680067E0
1.273700421E1,8.730302274E-2,1.366902580E0,-2.013314463E0,2.435052280E0
1.274703021E1,3.371931392E-1,1.387448234E0,-2.124182349E0,2.559465270E0
1.275705621E1,8.642056096E-1,8.923548366E-1,-2.039328725E0,2.387888218E0
1.276708121E1,1.579047019E0,1.311119704E-1,-1.855563601E0,2.440019696E0
1.277710721E1,1.641661343E0,-5.071518177E-1,-1.595929685E0,2.345047225E0
1.278713321E1,1.233096505E0,-1.249716631E0,-1.248261259E0,2.154176134E0
1.279715921E1,1.193485712E0,-1.713511783E0,-1.135608802E0,2.377001919E0
1.280718421E1,1.327847711E0,-1.756100563E0,-1.585228111E0,2.712935106E0
1.281721021E1,1.632585880E0,-1.052314630E0,-2.363188459E0,3.058980619E0
1.282723621E1,1.968088004E0,-5.012817979E-2,-3.114945095E0,3.684937743E0
1.283726121E1,2.256195522E0,4.771360132E-1,-3.554224187E0,4.236813258E0
1.284728721E1,2.883790042E0,6.836737034E-1,-3.684666213E0,4.728680560E0
1.285731321E1,3.504404156E0,4.191940530E-1,-3.624363878E0,5.058911509E0
1.286733921E1,3.849696273E0,-4.358163714E-1,-2.988204356E0,4.892797010E0
1.287736421E1,3.719011588E0,-1.407193112E0,-2.025988888E0,4.462720092E0
1.288739021E1,3.372119672E0,-2.306931520E0,-9.752524209E-1,4.200504899E0
1.289741621E1,2.861376495E0,-2.982734286E0,6.336042881E-2,4.133786861E0
1.290744121E1,2.037547079E0,-3.332448945E0,1.048195267E0,4.044196754E0
1.291746721E1,9.006618297E-1,-3.767787307E0,2.061354017E0,4.388233506E0
1.292749321E1,5.486033142E-2,-3.996134819E0,2.910804763E0,4.944177132E0
1.293751921E1,-6.363051170E-1,-3.583258536E0,3.567761661E0,5.096425140E0
1.294754421E1,-1.493147913E0,-3.005842775E0,3.943398489E0,5.178317595E0
1.295757021E1,-2.043429962E0,-2.646174400E0,3.892927662E0,5.131542726E0
1.296759621E1,-1.703187500E0,-2.288740832E0,3.809515961E0,4.759369088E0
1.297762221E1,-7.967199701E-1,-1.828208426E0,3.712925806E0,4.214608736E0
1.298764721E1,1.302432203E-1,-1.338101973E0,3.542033912E0,3.788599269E0
1.299767321E1,4.903744018E-1,-8.930847153E-1,3.340529505E0,3.492449676E0
1.300769921E1,-2.337132096E-3,-5.312208577E-1,3.018198819E0,3.064592170E0
1.301772421E1,-8.796796811E-1,-3.502991614E-1,2.703461326E0,2.864480579E0
1.302775021E1,-1.776879959E0,-4.626808921E-1,2.374986386E0,3.001988729E0
1.303777621E1,-2.264048333E0,-7.141526073E-1,2.281038587E0,3.292273657E0
1.304780221E1,-2.541116307E0,-1.086014473E0,2.373064406E0,3.642545017E0
1.305782721E1,-2.628435702E0,-1.385036696E0,2.307018351E0,3.761560123E0
1.306785321E1,-2.699588715E0,-1.500828377E0,2.229923397E0,3.809569977E0
1.307787921E1,-3.054814668E0,-1.588895192E0,2.038175654E0,4.001329852E0
1.308790421E1,-3.173261130E0,-1.681107829E0,1.822189448E0,4.026919930E0
1.309793021E1,-2.728105586E0,-1.776320381E0,1.388295057E0,3.539101206E0
1.310795621E1,-1.762970018E0,-1.708671604E0,5.525513542E-1,2.516532323E0
1.311798221E1,-7.043105739E-1,-1.558887573E0,-9.138087094E-1,1.939389133E0
1.312800721E1,-6.723976403E-1,-1.536116177E0,-2.159394282E0,2.733999847E0
1.313803321E1,-5.080201292E-1,-1.467590318E0,-3.405708418E0,3.743094391E0
1.314805921E1,-3.149105698E-1,-1.489943492E0,-3.905316743E0,4.191729850E0
1.315808421E1,-5.400383127E-1,-1.571981243E0,-3.011887919E0,3.440092331E0
1.316811021E1,-8.736149490E-1,-1.390483670E0,-1.216783358E0,2.043822315E0
1.317813621E1,-1.339100093E0,-9.063239079E-1,4.636549652E-1,1.682137929E0
1.318816221E1,-1.761054470E0,-9.177150149E-2,1.566617593E0,2.358818674E0
1.319818721E1,-2.018944747E0,6.890834011E-1,2.081692972E0,2.980674329E0
1.320821321E1,-2.035903426E0,1.211742619E0,1.988918710E0,3.093383353E0
1.321823921E1,-1.872508832E0,1.467669255E0,1.362264422E0,2.741551883E0
1.322826421E1,-1.635401314E0,1.425226802E0,5.097579217E-1,2.228376546E0
1.323829021E1,-1.324759796E0,1.113238232E0,-2.118259120E-1,1.743318128E0
1.324831621E1,-1.306400709E0,6.481452902E-1,-6.242371217E-1,1.586331338E0
1.325834221E1,-1.556051089E0,6.662065353E-2,-9.669154608E-1,1.833209975E0
1.326836721E1,-1.646080084E0,-5.289250215E-1,-1.309530723E0,2.168919555E0
1.327839321E1,-1.446376035E0,-9.682936496E-1,-1.509644662E0,2.304044972E0
1.328841921E1,-9.148939526E-1,-1.070195489E0,-1.525993477E0,2.076296082E0
1.329844421E1,-2.548883164E-1,-8.828877559E-1,-1.527086906E0,1.782260717E0
1.330847021E1,3.702076882E-1,-5.646336021E-1,-1.503135542E0,1.647811061E0
1.331849621E1,1.068866343E0,-9.349997498E-2,-1.265682453E0,1.659267783E0
1.332852221E1,1.747614645E0,3.355210548E-1,-7.999470484E-1,1.951062942E0
1.333854721E1,2.337422703E0,6.060755968E-1,-5.034452677E-1,2.466643399E0
1.334857321E1,2.849516587E0,7.782057850E-1,-6.008949272E-1,3.014369542E0
1.335859921E1,3.151632864E0,1.022105210E0,-1.112541536E0,3.495030392E0
1.336862421E1,2.843571723E0,1.124970524E0,-2.083476373E0,3.700315206E0
1.337865021E1,2.058785335E0,1.011184511E0,-3.498711891E0,4.183548263E0
1.338867621E1,1.205594126E0,6.549154888E-1,-4.990478107E0,5.175639403E0
1.339870221E1,3.591412479E-1,-6.675232552E-2,-5.707621565E0,5.719299104E0
1.340872721E1,2.994587177E-1,-1.497853752E0,-4.566453230E0,4.815156954E0
1.341875321E1,1.718104332E0,-2.929154203E0,-2.491534842E0,4.211837213E0
1.342877921E1,2.792489862E0,-3.699047440E0,-1.291093283E0,4.811223696E0
1.343880521E1,3.276508341E0,-3.317126901E0,-3.798234344E-1,4.677937968E0
1.344883021E1,2.793261695E0,-2.052572376E0,5.652141575E-1,3.512097849E0
1.345885621E1,2.395452810E0,-1.048906215E0,1.533015983E0,3.031259873E0
1.346888221E1,2.827139878E0,-1.777048505E-1,2.185776919E0,3.577977032E0
1.347890721E1,3.009898696E0,1.074934072E0,2.460368013E0,4.033408507E0
1.348893321E1,1.874547172E0,1.999970240E0,2.347127327E0,3.608713725E0
1.349895921E1,2.192828661E-1,2.060049357E0,2.140729970E0,2.979028891E0
1.350898421E1,-1.242153842E0,1.755202577E0,1.948586955E0,2.901839653E0
1.351901021E1,-2.459745285E0,9.262749732E-1,1.861463442E0,3.220772941E0
1.352903621E1,-2.685169482E0,3.764956377E-2,2.071880175E0,3.391790102E0
1.353906221E1,-2.104645048E0,-8.939672794E-1,2.434918592E0,3.340289931E0
1.354908721E1,-1.267694480E0,-1.933291516E0,3.027854326E0,3.809536349E0
1.355911321E1,-1.727331823E-1,-2.767105345E0,3.677244927E0,4.605305527E0
1.356913921E1,8.932668561E-1,-3.091760885E0,3.934169244E0,5.082774703E0
1.357916421E1,1.393036564E0,-2.858346468E0,3.812865247E0,4.964739347E0
1.358919021E1,1.399601233E0,-2.258872962E0,3.382839957E0,4.301743466E0
1.359921621E1,1.192739607E0,-1.522026141E0,2.950002158E0,3.527279983E0
1.360924221E1,6.581386203E-1,-7.399543235E-1,2.466699378E0,2.658060321E0
1.361926721E1,1.711099952E-1,1.513887987E-2,2.118308237E0,2.125261772E0
1.362929321E1,-4.337312543E-1,5.914739299E-1,1.868636806E0,2.007428137E0
1.363931921E1,-1.119738874E0,9.358073965E-1,1.571584218E0,2.144627609E0
1.364934421E1,-1.597167540E0,1.056420253E0,1.410675859E0,2.378439464E0
1.365937021E1,-1.770239861E0,1.024368009E0,1.420271140E0,2.490029939E0
1.366939621E1,-1.822281250E0,1.050980734E0,1.476950541E0,2.570340903E0
1.367942221E1,-1.830323510E0,1.187110054E0,1.474010561E0,2.632873253E0
1.368944721E1,-1.813393482E0,1.478382524E0,1.392067680E0,2.722473734E0
1.369947321E1,-1.644648101E0,1.953817728E0,1.063700913E0,2.766537678E0
1.370949921E1,-1.613842630E0,2.295957612E0,4.636561712E-1,2.844448353E0
1.371952421E1,-1.893371698E0,2.177084302E0,-5.088831782E-2,2.885678788E0
1.372955033E1,-2.229941524E0,1.785080679E0,-4.274840891E-1,2.888233868E0
1.373957633E1,-2.375546549E0,1.364663973E0,-6.938212538E-1,2.826113426E0
1.374960233E1,-2.378649666E0,8.549978529E-1,-8.273657390E-1,2.659610804E0
1.375962733E1,-2.224918181E0,3.283572654E-1,-9.414637005E-1,2.438120855E0
1.376965333E1,-1.941832252E0,-1.674706882E-1,-1.139135769E0,2.257518378E0
1.377967933E1,-1.618567180E0,-5.621695854E-1,-1.394939833E0,2.209445970E0
1.378970433E1,-1.467384496E0,-8.374889503E-1,-1.531247785E0,2.280202794E0
1.379973033E1,-1.512982253E0,-1.068719578E0,-1.622799979E0,2.462672655E0
1.380975633E1,-1.697829697E0,-1.252718883E0,-1.748328005E0,2.740179026E0
1.381978233E1,-1.816857373E0,-1.253770798E0,-1.991040080E0,2.972734856E0
1.382980733E1,-1.595959505E0,-1.002011472E0,-2.414217110E0,3.062606404E0
1.383983333E1,-1.307457885E0,-6.848546948E-1,-2.768920906E0,3.137737251E0
1.384985933E1,-1.065618215E0,-2.794840443E-1,-2.881369879E0,3.084792682E0
1.385988433E1,-7.762149543E-1,8.460847959E-2,-2.797854098E0,2.904764329E0
1.386991033E1,-3.838697076E-1,3.433843173E-1,-2.664488465E0,2.713810517E0
1.387993633E1,7.175878465E-2,4.917856273E-1,-2.608759822E0,2.655678865E0
1.388996133E1,4.974787688E-1,4.466110624E-1,-2.652610431E0,2.735560027E0
1.389998733E1,9.472834343E-1,1.174237847E-1,-2.583288181E0,2.753999287E0
1.391001333E1,1.605964676E0,-5.268522567E-1,-2.291252503E0,2.847197548E0
1.392003933E1,1.901037982E0,-1.068942796E0,-2.021599967E0,2.973793964E0
1.393006433E1,1.789865456E0,-1.587990335E0,-1.658674986E0,2.911448843E0
1.394009033E1,1.798872507E0,-2.358292585E0,-1.306274993E0,3.240962908E0
1.395011633E1,1.976555942E0,-3.318589582E0,-1.148506590E0,4.029749073E0
1.396014133E1,2.389200967E0,-4.014067060E0,-1.227248704E0,4.829819355E0
1.397016733E1,2.592206354E0,-3.728346376E0,-1.625133018E0,4.822982252E0
1.398019333E1,2.456773730E0,-2.185250962E0,-2.569967054E0,4.173222926E0
1.399021933E1,1.518183936E0,-6.726844463E-1,-3.689563841E0,4.046018804E0
1.400024433E1,1.286691499E-1,-1.956918360E-1,-4.433753010E0,4.439934324E0
1.401027033E1,4.335453129E-1,-2.537809999E-1,-4.583798411E0,4.611244323E0
1.402029633E1,2.233615329E0,-4.149160838E-1,-4.328538212E0,4.888500368E0
1.403032133E1,3.066308540E0,-8.144959442E-1,-3.511840060E0,4.732723561E0
1.404034733E1,2.665128735E0,-1.505003873E0,-2.530659732E0,3.971421220E0
1.405037333E1,2.568589450E0,-2.079004130E0,-1.516026313E0,3.635690542E0
1.406039933E1,2.772011159E0,-2.677907825E0,-5.848852873E-1,3.898374916E0
1.407042433E1,2.922239578E0,-3.366827357E0,3.247788426E-1,4.469954351E0
1.408045033E1,2.476338513E0,-3.868329011E0,1.246353897E0,4.759161670E0
1.409047633E1,1.385841565E0,-4.033980045E0,2.093568667E0,4.751482044E0
1.410050133E1,1.105579841E-1,-3.555550336E0,2.699554217E0,4.465619131E0
1.411052733E1,-1.188309757E0,-2.722362451E0,3.027859004E0,4.241611432E0
1.412055333E1,-2.124397527E0,-2.174398530E0,3.169801333E0,4.391891883E0
1.413057833E1,-2.263239663E0,-1.997902664E0,3.265992708E0,4.447536082E0
1.414060433E1,-1.568548343E0,-1.915791530E0,3.355553341E0,4.170172576E0
1.415063033E1,-2.995242065E-1,-1.743489580E0,3.419435341E0,3.849936197E0
1.416065633E1,8.579128361E-1,-1.542575157E0,3.411555634E0,3.841128010E0
1.417068133E1,1.485827199E0,-1.214115712E0,3.321103885E0,3.835556080E0
1.418070733E1,1.438307462E0,-7.926995708E-1,3.111998098E0,3.518754485E0
1.419073333E1,9.507718831E-1,-3.105359023E-1,2.826661575E0,2.998402138E0
1.420075833E1,1.162286139E-1,1.011330765E-1,2.421822583E0,2.426718281E0
1.421078433E1,-7.665974540E-1,3.319519144E-1,2.066140548E0,2.228631978E0
1.422081033E1,-1.505345204E0,4.247721505E-1,1.668415863E0,2.286942731E0
1.423083633E1,-2.151466042E0,4.635448182E-1,1.523152315E0,2.676503859E0
1.424086133E1,-2.516282598E0,4.482241631E-1,1.813857751E0,3.134112786E0
1.425088733E1,-2.857907926E0,3.046242211E-1,2.109256747E0,3.565024215E0
1.426091333E1,-3.153561276E0,5.841529235E-2,2.219590198E0,3.856804599E0
1.427093833E1,-3.277664335E0,-2.451732407E-1,2.177791377E0,3.942837645E0
1.428096433E1,-3.188466815E0,-6.173042243E-1,1.953671694E0,3.790015596E0
1.429099033E1,-2.777249095E0,-8.965626392E-1,1.347085635E0,3.214277027E0
1.430101533E1,-2.399928854E0,-1.084483306E0,6.857099962E-1,2.721389487E0
1.431104133E1,-2.104484249E0,-1.239324959E0,-1.924342060E-1,2.449859431E0
1.432106733E1,-1.802159227E0,-1.325649304E0,-9.756611413E-1,2.440704533E0
1.433109333E1,-1.771354925E0,-1.463734664E0,-1.250730538E0,2.616208003E0
1.434111833E1,-1.809380538E0,-1.457066499E0,-1.168349701E0,2.600373384E0
1.435114433E1,-1.780504063E0,-1.193232747E0,-5.914984882E-1,2.223481407E0
1.436117033E1,-1.648368684E0,-7.522253633E-1,3.371597735E-1,1.842997295E0
1.437119533E1,-1.750669815E0,-3.228712615E-1,1.039569454E0,2.061503166E0
1.438122133E1,-2.145223555E0,1.600687710E-1,1.206404477E0,2.466377480E0
1.439124733E1,-2.428773168E0,6.670645411E-1,8.551435947E-1,2.659921949E0
1.440127333E1,-2.374685254E0,1.103094263E0,1.747521528E-1,2.624211372E0
1.441129833E1,-1.957976414E0,1.325941957E0,-4.583760623E-1,2.408713832E0
1.442132433E1,-1.504120798E0,1.375981698E0,-9.077346949E-1,2.231521293E0
1.443135033E1,-1.321390631E0,1.053852375E0,-1.143977337E0,2.040921893E0
1.444137533E1,-1.051166822E0,5.219389875E-1,-1.388690329E0,1.818194935E0
1.445140133E1,-5.438933820E-1,1.677687500E-1,-1.844360336E0,1.930189476E0
1.446142733E1,-1.306835157E-1,-1.951043370E-1,-2.178260908E0,2.190882121E0
1.447145233E1,4.791541797E-1,-4.961305471E-1,-2.536112845E0,2.628231841E0
1.448147833E1,1.542644008E0,-3.497468188E-1,-2.615453714E0,3.056578398E0
1.449150433E1,2.723696201E0,2.009435859E-1,-2.087280571E0,3.437388471E0
1.450153033E1,3.319397083E0,7.647909567E-1,-1.593245813E0,3.760549750E0
1.451155533E1,3.394764184E0,1.287070398E0,-1.637033272E0,3.982568519E0
1.452158133E1,2.873477308E0,1.716289356E0,-2.138517383E0,3.971873310E0
1.453160733E1,1.932782516E0,1.708251043E0,-2.845895991E0,3.840949606E0
1.454163233E1,1.352297843E0,1.311523454E0,-3.378428818E0,3.868150011E0
1.455165833E1,1.345937827E0,5.795733111E-1,-3.782202448E0,4.056169278E0
1.456168433E1,1.986710216E0,-5.873148054E-1,-3.727518117E0,4.264545401E0
1.457170933E1,3.186248966E0,-2.004717886E0,-3.078887655E0,4.863190873E0
1.458173533E1,4.176248065E0,-2.935802779E0,-2.323858917E0,5.608948754E0
1.459176133E1,4.094944870E0,-3.071298553E0,-1.613196512E0,5.366921956E0
1.460178733E1,3.090766273E0,-2.552383892E0,-7.811726622E-1,4.083837707E0
1.461181233E1,2.779282756E0,-1.531585169E0,1.131811181E-1,3.175370173E0
1.462183833E1,3.117574003E0,-2.851024146E-1,1.100060216E0,3.318235002E0
1.463186433E1,2.534356926E0,6.670046803E-1,1.937407079E0,3.259049932E0
1.464188933E1,1.011188824E0,8.878188591E-1,2.434440290E0,2.781586721E0
1.465191533E1,-4.639116579E-1,7.747106849E-1,2.493970792E0,2.652410410E0
1.466194133E1,-1.424586385E0,6.007571156E-1,2.183761969E0,2.675662874E0
1.467196733E1,-1.887201716E0,2.189025047E-1,1.785336202E0,2.607081506E0
1.468199233E1,-1.659784788E0,-6.038764590E-1,1.776145403E0,2.504844269E0
1.469201833E1,-8.819495702E-1,-1.762668301E0,2.199197448E0,2.953185399E0
1.470204433E1,1.144434589E-1,-2.771434916E0,2.630681033E0,3.822882616E0
1.471206933E1,9.557466942E-1,-3.246706837E0,2.825700878E0,4.408984291E0
1.472209533E1,1.515253896E0,-3.438794011E0,2.887583131E0,4.739138630E0
1.473212117E1,1.695243473E0,-3.280507544E0,2.653077039E0,4.546910814E0
1.474214617E1,1.306262130E0,-2.708343459E0,2.214010785E0,3.734071343E0
1.475217217E1,4.460449058E-1,-1.894267783E0,1.750613097E0,2.617604384E0
1.476219817E1,-3.099597323E-1,-1.137373053E0,1.485420817E0,1.896356375E0
1.477222417E1,-8.476018560E-1,-6.040536296E-1,1.447395204E0,1.782768233E0
1.478224917E1,-1.246529898E0,-2.562065712E-1,1.563400455E0,2.015861993E0
1.479227517E1,-1.552695957E0,-3.712104857E-2,1.688916786E0,2.294489620E0
1.480230117E1,-1.840814000E0,1.706740853E-1,1.764136537E0,2.555367595E0
1.481232617E1,-2.107087430E0,3.497925733E-1,1.739527946E0,2.754656014E0
1.482235217E1,-2.265682045E0,5.420656885E-1,1.671388003E0,2.867174252E0
1.483237817E1,-2.258710994E0,8.234565099E-1,1.620594410E0,2.899341687E0
1.484240317E1,-2.337740791E0,1.141168334E0,1.565287936E0,3.036020998E0
1.485242917E1,-2.420444979E0,1.530225546E0,1.419578830E0,3.196145831E0
1.486245517E1,-2.407387562E0,1.793250116E0,1.126881248E0,3.206418906E0
1.487248117E1,-2.180423208E0,1.947856345E0,6.542941491E-1,2.996079195E0
1.488250617E1,-1.906757728E0,1.962521747E0,2.157692742E-1,2.744771944E0
1.489253217E1,-1.783241145E0,1.755083732E0,-2.305380984E-1,2.512651130E0
1.490255817E1,-1.750559887E0,1.370072355E0,-6.439947903E-1,2.314365457E0
1.491258317E1,-1.764796103E0,7.816221669E-1,-9.097310074E-1,2.133787479E0
1.492260917E1,-1.738777163E0,4.161054075E-2,-1.018395517E0,2.015491724E0
1.493263517E1,-1.647409156E0,-5.706496561E-1,-1.017613233E0,2.018696274E0
1.494266117E1,-1.598585490E0,-1.026889182E0,-1.104231546E0,2.197567808E0
1.495268617E1,-1.645507057E0,-1.324868847E0,-1.291980890E0,2.476325010E0
1.496271217E1,-1.672192580E0,-1.453175469E0,-1.507971189E0,2.679911206E0
1.497273817E1,-1.477259858E0,-1.442879692E0,-1.631408250E0,2.631670833E0
1.498276317E1,-1.350826684E0,-1.348987880E0,-1.690820639E0,2.550171654E0
1.499278917E1,-1.243293464E0,-1.127845088E0,-1.771941401E0,2.440817385E0
1.500281517E1,-1.145557255E0,-7.866046525E-1,-1.841833169E0,2.307248952E0
1.501284017E1,-9.089718926E-1,-3.953857988E-1,-1.879760549E0,2.125102245E0
1.502286617E1,-6.090424740E-1,-1.237061063E-1,-1.893596523E0,1.992973589E0
1.503289217E1,-2.117545760E-1,9.546237364E-3,-1.847929476E0,1.860046903E0
1.504291817E1,3.228195137E-1,-6.504099168E-2,-1.793726957E0,1.823704791E0
1.505294317E1,9.812879169E-1,-3.608061694E-1,-1.659293476E0,1.961214396E0
1.506296917E1,1.814198059E0,-6.079862476E-1,-1.525814552E0,2.447258042E0
1.507299517E1,2.459858136E0,-6.410498402E-1,-1.360352383E0,2.883124269E0
1.508302017E1,2.650621793E0,-6.150092652E-1,-1.153462763E0,2.955420212E0
1.509304617E1,2.554662552E0,-5.385577246E-1,-9.611454284E-1,2.782111736E0
1.510307217E1,2.542212660E0,-2.262971860E-1,-1.080830916E0,2.771687410E0
1.511309717E1,2.492053490E0,2.206019249E-1,-1.521795176E0,2.928285568E0
1.512312317E1,2.235037957E0,7.106702980E-1,-2.058699381E0,3.120687438E0
1.513314917E1,2.122631668E0,1.084996546E0,-2.443621588E0,3.413805672E0
1.514317517E1,2.160275458E0,8.020052683E-1,-2.742724210E0,3.582253285E0
1.515320017E1,2.419940949E0,-1.483510239E-1,-2.962567824E0,3.828175850E0
1.516322617E1,3.105969619E0,-1.493076869E0,-2.999960768E0,4.569036049E0
1.517325217E1,4.172147997E0,-2.758709328E0,-2.867683886E0,5.765492775E0
1.518327717E1,4.824413674E0,-3.619899529E0,-2.633300586E0,6.581254582E0
1.519330317E1,4.687025741E0,-4.196207535E0,-2.162730703E0,6.652350868E0
1.520332917E1,4.044822537E0,-4.251779180E0,-1.339033434E0,6.019238000E0
1.521335417E1,2.956743997E0,-3.990561253E0,-2.160370036E-1,4.971276111E0
1.522338017E1,1.593687277E0,-3.517470636E0,7.995636173E-1,3.943569550E0
1.523340617E1,1.936925268E-1,-2.728921857E0,1.372364756E0,3.060705200E0
1.524343217E1,-1.210665416E0,-1.885357796E0,1.726652377E0,2.828712286E0
1.525345717E1,-2.286887557E0,-1.387523809E0,2.055011981E0,3.373151532E0
1.526348317E1,-2.601433845E0,-1.171178803E0,2.406960861E0,3.732636927E0
1.527350917E1,-2.251815373E0,-1.056304332E0,2.806194566E0,3.749823897E0
1.528353417E1,-1.389703651E0,-1.001548958E0,3.295587806E0,3.714199178E0
1.529356017E1,-3.602358466E-1,-9.763363485E-1,3.742063651E0,3.884075553E0
1.530358617E1,5.671904433E-1,-9.406453827E-1,4.076794528E0,4.222176258E0
1.531361117E1,9.797477603E-1,-8.239875832E-1,4.184111985E0,4.375574741E0
1.532363717E1,7.145373541E-1,-6.203116666E-1,3.978550780E0,4.089525217E0
1.533366317E1,-2.617137712E-1,-3.926166306E-1,3.474302105E0,3.506196947E0
1.534368917E1,-1.115034204E0,-1.397079621E-1,3.058898363E0,3.258784864E0
1.535371417E1,-1.670619094E0,3.233163077E-2,2.838871146E0,3.294116403E0
1.536374017E1,-2.049859561E0,1.062039646E-1,2.596302913E0,3.309681604E0
1.537376617E1,-2.261015967E0,8.600749902E-2,2.347509735E0,3.260428261E0
1.538379117E1,-2.178617004E0,4.076861478E-2,2.334758273E0,3.193607728E0
1.539381717E1,-2.140642262E0,-4.109382961E-2,2.457674786E0,3.259478999E0
1.540384317E1,-2.260186831E0,-1.768990311E-1,2.620432034E0,3.465025515E0
1.541386917E1,-2.546765302E0,-3.658830144E-1,2.653498038E0,3.696070308E0
1.542389417E1,-2.806352441E0,-6.861863981E-1,2.623288983E0,3.902321218E0
1.543392017E1,-2.857140772E0,-9.608771874E-1,2.634853606E0,4.003622345E0
1.544394617E1,-2.888013486E0,-1.215166018E0,2.629375935E0,4.090338391E0
1.545397117E1,-2.737627777E0,-1.506941787E0,2.539421200E0,4.026678460E0
1.546399717E1,-2.372610662E0,-1.775406461E0,2.363498361E0,3.790445087E0
1.547402317E1,-1.810911339E0,-1.945710125E0,1.903593800E0,3.269381765E0
1.548404817E1,-1.106547555E0,-1.936788443E0,1.294444907E0,2.578989062E0
1.549407417E1,-6.531012440E-1,-1.768834044E0,7.074032394E-1,2.013885412E0
1.550410017E1,-5.790216994E-1,-1.411104168E0,1.987578236E-2,1.525410157E0
1.551412617E1,-5.809565431E-1,-8.602863671E-1,-7.562682744E-1,1.284346075E0
1.552415117E1,-7.216428906E-1,-3.155011386E-1,-1.422526996E0,1.626005069E0
1.553417717E1,-8.437894714E-1,1.543742408E-1,-2.181614871E0,2.344196136E0
1.554420317E1,-1.025316866E0,4.322977363E-1,-2.816042447E0,3.027911999E0
1.555422817E1,-1.213462724E0,5.493531099E-1,-3.257617157E0,3.519424692E0
1.556425417E1,-1.393674495E0,5.785441281E-1,-3.324305820E0,3.650760345E0
1.557428017E1,-1.496821718E0,4.747826185E-1,-3.002541729E0,3.388384663E0
1.558430517E1,-1.452920238E0,1.704555822E-1,-2.696331232E0,3.067610542E0
1.559433117E1,-1.046138216E0,-1.710904436E-1,-2.470053341E0,2.687906363E0
1.560435717E1,-4.118860567E-1,-3.989483246E-1,-2.137692926E0,2.213264768E0
1.561438317E1,2.874602312E-1,-2.423789294E-1,-1.544563065E0,1.589671661E0
1.562440817E1,8.516621625E-1,1.796192655E-1,-1.010866788E0,1.333957714E0
1.563443417E1,1.236746922E0,5.390248440E-1,-7.785509169E-1,1.557636755E0
1.564446017E1,1.421371586E0,6.815590578E-1,-7.272473006E-1,1.736003621E0
1.565448517E1,1.502131575E0,6.138626993E-1,-9.970977648E-1,1.904581485E0
1.566451117E1,1.634739409E0,4.275323287E-1,-1.613397657E0,2.336280982E0
1.567453717E1,1.589637496E0,2.558991538E-1,-2.313517239E0,2.818651053E0
1.568456217E1,1.187000565E0,5.111489743E-3,-2.790100690E0,3.032104604E0
1.569458817E1,6.794575685E-1,-3.641292152E-1,-2.886800773E0,2.987954380E0
1.570461417E1,5.402745402E-1,-6.792396136E-1,-2.757834585E0,2.891178761E0
1.571464017E1,6.313572031E-1,-1.022321484E0,-2.452986488E0,2.731464048E0
1.572466517E1,9.784257048E-1,-1.330207355E0,-2.437126354E0,2.943867071E0
1.573469083E1,1.794083637E0,-1.562638270E0,-2.326894645E0,3.327914234E0
1.574471683E1,2.834821950E0,-1.566834817E0,-2.130019040E0,3.876618106E0
1.575474183E1,3.676035722E0,-1.132755945E0,-2.004181989E0,4.337409378E0
1.576476783E1,4.311633911E0,-4.761495879E-1,-1.745883577E0,4.676004157E0
1.577479383E1,4.365882039E0,1.737708438E-1,-7.286205192E-1,4.429673819E0
1.578481883E1,3.870024118E0,8.205266894E-1,7.971838005E-1,4.035573409E0
1.579484483E1,3.006976258E0,1.395238918E0,2.147031953E0,3.949473896E0
1.580487083E1,2.103090858E0,1.843359585E0,3.094694140E0,4.171102677E0
1.581489683E1,1.061518148E0,1.995310301E0,3.643343647E0,4.287427773E0
1.582492183E1,-9.489446282E-2,1.813710840E0,3.885666590E0,4.289167380E0
1.583494783E1,-1.205328078E0,1.166352146E0,3.767550495E0,4.124030775E0
1.584497383E1,-1.874581670E0,2.014949052E-1,3.289387418E0,3.791401617E0
1.585499883E1,-1.334055115E0,-4.856589147E-1,3.073970146E0,3.385979931E0
1.586502483E1,2.181011438E-4,-9.328441738E-1,2.907628555E0,3.053604774E0
1.587505083E1,1.212490917E0,-1.254619082E0,2.430805660E0,2.992159659E0
1.588507683E1,1.968910707E0,-1.395900823E0,2.006843934E0,3.138880542E0
1.589510183E1,2.240802727E0,-1.231477557E0,1.736916725E0,3.091053792E0
1.590512783E1,1.878225070E0,-7.124443433E-1,1.467013928E0,2.487455773E0
1.591515383E1,7.321924371E-1,-8.127658993E-2,1.155824965E0,1.370635983E0
1.592517883E1,-6.518043315E-1,2.379123875E-1,1.028684131E0,1.240823208E0
1.593520483E1,-1.626950918E0,4.341700879E-1,1.067145946E0,1.993557981E0
1.594523083E1,-2.094106026E0,4.965063769E-1,1.133781035E0,2.432541483E0
1.595525583E1,-1.997353903E0,5.716739421E-1,1.311827509E0,2.457056191E0
1.596528183E1,-1.905890002E0,6.628225324E-1,1.489865724E0,2.508276357E0
1.597530783E1,-2.159835162E0,7.765545313E-1,1.607254426E0,2.801997797E0
1.598533383E1,-2.425806876E0,1.089070666E0,1.720433278E0,3.167097185E0
1.599535883E1,-2.549131086E0,1.624609400E0,1.795778160E0,3.515998322E0
1.600538483E1,-2.639798012E0,2.085533570E0,1.654414851E0,3.749009511E0
1.601541083E1,-2.536006426E0,2.252033474E0,1.297234029E0,3.631225617E0
1.602543583E1,-2.356982809E0,2.263082373E0,6.632050864E-1,3.334179175E0
1.603546183E1,-2.306973912E0,2.074071127E0,1.272472532E-1,3.104849680E0
1.604548783E1,-2.308432208E0,1.755359720E0,-2.783273189E-1,2.913350837E0
1.605551283E1,-2.221298169E0,1.269081878E0,-5.655051295E-1,2.620024890E0
1.606553883E1,-2.073817357E0,6.226447056E-1,-9.435207510E-1,2.361913688E0
1.607556483E1,-1.851139013E0,1.952999264E-2,-1.140899216E0,2.174568483E0
1.608559083E1,-1.573907316E0,-4.258353205E-1,-1.108834255E0,1.971809668E0
1.609561583E1,-1.323403242E0,-8.836367843E-1,-9.369142744E-1,1.846623531E0
1.610564183E1,-1.130445126E0,-1.279679372E0,-8.193539572E-1,1.893891862E0
1.611566783E1,-9.941441900E-1,-1.404708484E0,-8.238865726E-1,1.907961655E0
1.612569283E1,-9.300464272E-1,-1.365725535E0,-1.037096374E0,1.950836099E0
1.613571883E1,-9.560156661E-1,-1.174768190E0,-1.371797723E0,2.043495839E0
1.614574483E1,-9.284893137E-1,-9.534607252E-1,-1.766426307E0,2.211660385E0
1.615576983E1,-1.032300196E0,-7.402931696E-1,-2.232187439E0,2.568333786E0
1.616579583E1,-1.172370831E0,-4.538738890E-1,-2.635672216E0,2.920140905E0
1.617582183E1,-1.111842209E0,-1.149878347E-1,-2.981554610E0,3.184192707E0
1.618584783E1,-8.961495334E-1,1.354530895E-1,-3.294790245E0,3.417173435E0
1.619587283E1,-6.257503080E-1,1.401274998E-1,-3.507521306E0,3.565656304E0
1.620589883E1,-1.236276805E-1,-5.205615297E-2,-3.528398205E0,3.530947117E0
1.621592483E1,7.573991990E-1,-4.367861322E-1,-3.311751848E0,3.425220574E0
1.622594983E1,1.554344287E0,-8.454104657E-1,-2.790017660E0,3.303771112E0
1.623597583E1,1.631245113E0,-1.102899916E0,-2.259109190E0,2.996818842E0
1.624600183E1,1.306396616E0,-1.404752630E0,-1.641693503E0,2.524907845E0
1.625602683E1,1.164478260E0,-1.648353774E0,-1.075616369E0,2.286925962E0
1.626605283E1,1.443524932E0,-1.383858043E0,-8.749514763E-1,2.182743091E0
1.627607883E1,1.775430434E0,-7.006582569E-1,-1.055145267E0,2.180918787E0
1.628610483E1,1.695949817E0,3.037749130E-1,-1.651783312E0,2.386820707E0
1.629612983E1,1.050089765E0,1.196797209E0,-2.420279357E0,2.897026793E0
1.630615583E1,2.179175413E-1,1.546842017E0,-2.889018037E0,3.284301067E0
1.631618183E1,3.466825855E-1,1.363705615E0,-3.189342728E0,3.485941602E0
1.632620683E1,1.623328568E0,6.424794844E-1,-3.243167517E0,3.683220204E0
1.633623283E1,3.200726087E0,-3.984257662E-1,-3.123496940E0,4.489946961E0
1.634625883E1,4.104561785E0,-1.564778643E0,-2.756060539E0,5.185733251E0
1.635628383E1,3.886275870E0,-2.548095252E0,-2.320469871E0,5.194276655E0
1.636630983E1,2.892624600E0,-3.011468381E0,-1.618651965E0,4.478420823E0
1.637633583E1,1.913504246E0,-3.172670562E0,-4.392942953E-1,3.730994032E0
1.638636183E1,1.085973542E0,-3.387413942E0,8.875665517E-1,3.666290514E0
1.639638683E1,5.279509485E-1,-3.365142775E0,1.963265951E0,3.931581271E0
1.640641283E1,1.807625788E-1,-2.898413928E0,2.673886110E0,3.947549282E0
1.641643883E1,-1.458377445E-1,-2.341246782E0,3.112930144E0,3.897824935E0
1.642646383E1,-3.357418603E-1,-1.805035180E0,3.293427844E0,3.770615541E0
1.643648983E1,-4.020603955E-2,-1.194661441E0,3.323040483E0,3.531491262E0
1.644651583E1,6.752458191E-1,-6.533251923E-1,3.447265749E0,3.573014395E0
1.645654183E1,1.529645648E0,-2.768028767E-1,3.542646700E0,3.868692451E0
1.646656683E1,2.238852680E0,8.293032870E-3,3.546225196E0,4.193833955E0
1.647659283E1,2.669373813E0,2.234083691E-1,3.537876542E0,4.437571214E0
1.648661883E1,2.659906586E0,4.204388521E-1,3.443302506E0,4.371293175E0
1.649664383E1,2.138739578E0,6.242380719E-1,3.086905357E0,3.806949544E0
1.650666983E1,1.130040498E0,7.191214981E-1,2.389100980E0,2.738965270E0
1.651669583E1,2.464133620E-2,7.533427662E-1,1.914380744E0,2.057422210E0
1.652672083E1,-8.926622540E-1,6.407183030E-1,1.668419956E0,1.997746479E0
1.653674683E1,-1.808278338E0,3.022302979E-1,1.435386193E0,2.328421616E0
1.654677283E1,-2.647895821E0,-1.257355287E-1,1.425817809E0,3.010003011E0
1.655679883E1,-3.058630561E0,-3.947724990E-1,1.692481248E0,3.517891273E0
1.656682383E1,-3.321107978E0,-6.459797738E-1,1.741583827E0,3.805280843E0
1.657684983E1,-3.729234860E0,-1.063795565E0,1.800982182E0,4.275791209E0
1.658687583E1,-3.974206299E0,-1.368760679E0,1.891808152E0,4.609420743E0
1.659690083E1,-3.962946900E0,-1.537117220E0,1.709628793E0,4.581539926E0
1.660692683E1,-3.878498488E0,-1.638162369E0,1.358904612E0,4.424132482E0
1.661695283E1,-3.666980724E0,-1.743284197E0,1.097134123E0,4.205887624E0
1.662697783E1,-3.127637646E0,-1.721990976E0,9.412122703E-1,3.692323212E0
1.663700383E1,-2.474960909E0,-1.554605365E0,8.109515083E-1,3.033129027E0
1.664702983E1,-1.705914642E0,-1.164354591E0,5.279345763E-1,2.131802358E0
1.665705583E1,-1.184133675E0,-7.427006876E-1,9.112180274E-2,1.400742680E0
1.666708083E1,-9.395271027E-1,-4.305907879E-1,-2.540299817E-1,1.064260699E0
1.667710683E1,-8.548009479E-1,-7.983510509E-2,-3.621754412E-1,9.317882564E-1
1.668713283E1,-1.000593669E0,2.362966557E-1,-2.562717676E-1,1.059574923E0
1.669715783E1,-1.195460901E0,5.377700681E-1,-2.533388042E-1,1.335104476E0
1.670718383E1,-1.285955334E0,8.652255102E-1,-3.397991701E-1,1.586745027E0
1.671720983E1,-1.263311992E0,1.115316478E0,-5.747812986E-1,1.780522838E0
1.672723554E1,-1.175955759E0,1.140503068E0,-9.099800257E-1,1.873948463E0
1.673726154E1,-1.012162385E0,9.675842361E-1,-1.339124651E0,1.937510459E0
1.674728754E1,-8.662568128E-1,6.669014769E-1,-1.750341786E0,2.063699303E0
1.675731354E1,-7.359176981E-1,3.381671391E-1,-2.218807987E0,2.361999313E0
1.676733854E1,-6.189172518E-1,-1.244448289E-2,-3.024405638E0,3.087109148E0
1.677736454E1,-6.204720265E-1,-1.960411341E-1,-3.654475869E0,3.711955218E0
1.678739054E1,-1.989099973E-1,-4.020180032E-2,-3.876374195E0,3.881682402E0
1.679741554E1,7.598819268E-1,4.962911993E-1,-3.494748648E0,3.610677722E0
1.680744154E1,1.871558660E0,1.025688018E0,-2.618605363E0,3.378144724E0
1.681746754E1,2.493732811E0,1.232123820E0,-2.005662796E0,3.429215026E0
1.682749254E1,2.723441262E0,1.360712571E0,-1.873865386E0,3.574918530E0
1.683751854E1,2.620157214E0,1.456186785E0,-2.197470181E0,3.716796871E0
1.684754454E1,2.258114578E0,1.433461289E0,-2.758142148E0,3.842036026E0
1.685757054E1,1.572713315E0,1.186922870E0,-3.639256736E0,4.138405812E0
1.686759554E1,7.327327198E-1,6.705285048E-1,-4.472270958E0,4.581234903E0
1.687762154E1,4.693758810E-1,-8.289210252E-2,-5.028083889E0,5.050624953E0
1.688764754E1,1.325410591E0,-1.214626759E0,-4.953333085E0,5.269491441E0
1.689767254E1,2.823360822E0,-2.305381861E0,-3.872499830E0,5.318120607E0
1.690769854E1,3.825043827E0,-2.779468698E0,-2.487011436E0,5.342436935E0
1.691772454E1,3.982681253E0,-2.553699223E0,-1.010827904E0,4.837861380E0
1.692774954E1,3.647021254E0,-1.759807259E0,3.588556114E-1,4.065275263E0
1.693777554E1,3.313417720E0,-8.224316391E-1,1.640127764E0,3.787499158E0
1.694780154E1,3.192452277E0,1.113984483E-1,2.781543875E0,4.235699173E0
1.695782754E1,2.969054725E0,7.190886806E-1,3.549341762E0,4.682969297E0
1.696785254E1,2.073482897E0,5.712558661E-1,4.191819785E0,4.711371106E0
1.697787854E1,1.219043891E0,1.346270241E-2,4.301045773E0,4.470485879E0
1.698790454E1,6.915367466E-1,-4.559305009E-1,3.870876642E0,3.958507506E0
1.699792954E1,3.558556974E-1,-7.881047557E-1,3.061605624E0,3.181378849E0
1.700795554E1,4.658447474E-1,-9.241337959E-1,2.216839521E0,2.446510181E0
1.701798154E1,8.702580625E-1,-1.097165844E0,1.728483725E0,2.224584899E0
1.702800654E1,1.111918808E0,-1.434845910E0,1.716126073E0,2.498046220E0
1.703803254E1,1.024774244E0,-1.760133533E0,2.018243666E0,2.867322759E0
1.704805854E1,8.625783294E-1,-1.959399919E0,2.456908801E0,3.258786625E0
1.705808454E1,4.142594415E-1,-2.006133497E0,3.006812536E0,3.638283128E0
1.706810954E1,-1.938422155E-1,-1.868956941E0,3.389784111E0,3.875720729E0
1.707813554E1,-8.614217502E-1,-1.512135284E0,3.521075152E0,3.927667345E0
1.708816154E1,-1.600125062E0,-1.005983559E0,3.557669367E0,4.028574743E0
1.709818654E1,-2.282342516E0,-4.704418284E-1,3.347549672E0,4.078785565E0
1.710821254E1,-2.772773636E0,6.164719462E-2,3.063341078E0,4.132327742E0
1.711823854E1,-3.130444309E0,6.581803548E-1,2.796047308E0,4.248619011E0
1.712826354E1,-3.260179991E0,1.342669818E0,2.519595923E0,4.333578132E0
1.713828954E1,-3.257110788E0,1.823576408E0,2.278918387E0,4.373519248E0
1.714831554E1,-3.318188463E0,1.982675345E0,1.877280160E0,4.297156851E0
1.715834154E1,-3.168600315E0,1.975051161E0,1.408686637E0,3.990645698E0
1.716836654E1,-2.647930319E0,1.834568296E0,9.808646516E-1,3.367383446E0
1.717839254E1,-2.109964845E0,1.543783046E0,4.843166864E-1,2.658905864E0
1.718841854E1,-1.646527981E0,1.191262308E0,-4.078213647E-2,2.032688727E0
1.719844354E1,-1.266636719E0,8.163003950E-1,-5.666489911E-1,1.609908690E0
1.720846954E1,-1.107160928E0,4.038677698E-1,-1.089006347E0,1.604633703E0
1.721849554E1,-1.161162888E0,-7.831175923E-3,-1.416514889E0,1.831631789E0
1.722852054E1,-1.295872797E0,-3.607575645E-1,-1.516375831E0,2.027024417E0
1.723854654E1,-1.581254928E0,-6.641540895E-1,-1.494927367E0,2.275142991E0
1.724857254E1,-1.866422465E0,-8.721357496E-1,-1.381467994E0,2.480445001E0
1.725859754E1,-1.812409980E0,-8.440341774E-1,-1.219286259E0,2.341769120E0
1.726862354E1,-1.440625298E0,-5.612178048E-1,-1.078958784E0,1.885343134E0
1.727864954E1,-1.067884596E0,-2.200937288E-1,-1.025250939E0,1.496649006E0
1.728867554E1,-7.958089739E-1,1.402131616E-1,-1.089964413E0,1.356832368E0
1.729870054E1,-5.799484831E-1,4.496701795E-1,-1.203580345E0,1.409662782E0
1.730872654E1,-2.434149098E-1,7.322554408E-1,-1.380966303E0,1.581934505E0
1.731875254E1,1.937726337E-1,8.907661481E-1,-1.641449089E0,1.877596143E0
1.732877754E1,6.720392060E-1,9.460086682E-1,-1.947337990E0,2.266868841E0
1.733880354E1,1.215595204E0,8.859068926E-1,-2.198779957E0,2.664045049E0
1.734882954E1,1.817729777E0,7.065620443E-1,-2.368924577E0,3.068415734E0
1.735885454E1,2.382820485E0,4.347636534E-1,-2.480142127E0,3.466692641E0
1.736888054E1,2.668766872E0,-5.541347802E-2,-2.525997162E0,3.675057678E0
1.737890654E1,2.505210310E0,-6.466402169E-1,-2.461467290E0,3.571140362E0
1.738893254E1,2.109934439E0,-1.099194024E0,-2.294026569E0,3.304937025E0
1.739895754E1,1.781353664E0,-1.303084022E0,-2.321547074E0,3.203252981E0
1.740898354E1,1.512308654E0,-1.357266807E0,-2.497359838E0,3.219636130E0
1.741900954E1,1.419661276E0,-1.423343706E0,-2.824339646E0,3.466733315E0
1.742903454E1,1.722888524E0,-1.359239950E0,-3.376763531E0,4.027208717E0
1.743906054E1,2.306845858E0,-1.064486852E0,-3.930331131E0,4.679975734E0
1.744908654E1,2.502976089E0,-9.194053718E-1,-4.150688131E0,4.933397156E0
1.745911154E1,2.285823364E0,-9.426290506E-1,-4.046800650E0,4.742376354E0
1.746913754E1,2.169916931E0,-1.056819764E0,-3.625577760E0,4.355481787E0
1.747916354E1,2.391483720E0,-1.351551738E0,-2.641936923E0,3.811261890E0
1.748918854E1,2.471552567E0,-1.844634863E0,-1.428202304E0,3.398677933E0
1.749921454E1,2.036475284E0,-2.376284175E0,-2.081047440E-1,3.136441558E0
1.750924054E1,1.235060000E0,-2.813152753E0,9.829998355E-1,3.225754221E0
1.751926654E1,4.555127174E-1,-2.903820264E0,1.919616340E0,3.510639665E0
1.752929154E1,-1.592810780E-1,-2.662287865E0,2.616005691E0,3.735857721E0
1.753931754E1,-4.064148170E-1,-2.180360643E0,3.083799316E0,3.798547585E0
1.754934354E1,-4.055535221E-1,-1.488245022E0,3.305191272E0,3.647415010E0
1.755936854E1,-3.029056513E-1,-8.192487073E-1,3.343008724E0,3.455231918E0
1.756939454E1,6.149282813E-2,-3.753587198E-1,3.388846217E0,3.410125250E0
1.757942054E1,7.272111940E-1,-2.972636729E-2,3.337768450E0,3.416199350E0
1.758944554E1,1.350153084E0,2.894626102E-1,3.241033283E0,3.522924736E0
1.759947154E1,1.704156384E0,5.618502543E-1,3.106164916E0,3.587211336E0
1.760949754E1,1.628662983E0,8.290312453E-1,2.942877910E0,3.464154487E0
1.761952254E1,1.036706073E0,9.827160262E-1,2.826797816E0,3.167218995E0
1.762954854E1,2.242301953E-1,1.013237249E0,2.717141472E0,2.908571244E0
1.763957454E1,-4.223730379E-1,9.513098270E-1,2.551631355E0,2.755759776E0
1.764960054E1,-9.350615841E-1,8.273487820E-1,2.703637912E0,2.978003380E0
1.765962554E1,-1.384828827E0,6.684868763E-1,2.988487362E0,3.360904982E0
1.766965154E1,-1.688887550E0,4.952837972E-1,2.991435528E0,3.470782867E0
1.767967754E1,-2.029390798E0,2.626034251E-1,2.865498197E0,3.521145763E0
1.768970254E1,-2.565258291E0,-1.353901223E-1,2.583511544E0,3.643269478E0
1.769972854E1,-3.172371184E0,-6.006179884E-1,2.218152952E0,3.917254577E0
1.770975454E1,-3.505088865E0,-1.035127471E0,1.976448938E0,4.154935286E0
1.771977954E1,-3.536636347E0,-1.517043583E0,1.790130919E0,4.244265142E0
1.772980433E1,-3.193398941E0,-1.781578343E0,1.458808969E0,3.936996545E0
1.773983033E1,-2.758585367E0,-1.897910891E0,1.083752112E0,3.519428593E0
1.774985533E1,-2.496617242E0,-1.936819726E0,6.725186046E-1,3.230580378E0
1.775988133E1,-2.344524731E0,-1.845699348E0,2.731666394E-1,2.996334813E0
1.776990733E1,-2.301091028E0,-1.591436976E0,1.103954315E-2,2.797822983E0
1.777993233E1,-2.053348594E0,-1.124559318E0,-2.478752390E-1,2.354212447E0
1.778995833E1,-1.636354410E0,-5.349236801E-1,-5.217270990E-1,1.798888063E0
1.779998433E1,-1.386515749E0,-2.515428320E-2,-6.938995334E-1,1.550662833E0
1.781001033E1,-1.246262680E0,3.595049447E-1,-8.583069384E-1,1.555347316E0
1.782003533E1,-1.116086118E0,7.000042458E-1,-1.012968204E0,1.661854010E0
1.783006133E1,-1.083259265E0,9.569857192E-1,-1.159151958E0,1.852810180E0
1.784008733E1,-1.104195805E0,1.147425732E0,-1.313338430E0,2.064144379E0
1.785011233E1,-1.094807516E0,1.189250720E0,-1.549588162E0,2.239228493E0
1.786013833E1,-1.106885524E0,1.074848118E0,-1.765097820E0,2.344368647E0
1.787016433E1,-1.178787566E0,8.156639256E-1,-1.983186246E0,2.447013578E0
1.788018933E1,-1.201092355E0,5.306307274E-1,-2.182882547E0,2.547384547E0
1.789021533E1,-1.044641914E0,2.550442909E-1,-2.388627355E0,2.619516169E0
1.790024133E1,-8.098428762E-1,-4.634254619E-2,-2.598338914E0,2.722013635E0
1.791026633E1,-3.202824068E-1,-1.759395030E-1,-2.916727992E0,2.939530185E0
1.792029233E1,3.570806891E-1,-3.419137426E-2,-3.237871109E0,3.257680922E0
1.793031833E1,1.118890443E0,4.172288038E-1,-2.852094040E0,3.091995490E0
1.794034333E1,1.995852923E0,9.613975165E-1,-2.147160738E0,3.085127762E0
1.795036933E1,2.564363667E0,1.299630510E0,-1.597268697E0,3.288809476E0
1.796039533E1,2.697944478E0,1.415596876E0,-1.268617755E0,3.300334821E0
1.797042133E1,2.637651499E0,1.508740390E0,-1.251370808E0,3.286248909E0
1.798044633E1,2.849616575E0,1.494138431E0,-1.523006866E0,3.559819404E0
1.799047233E1,3.385770582E0,1.336221216E0,-1.842270541E0,4.079569869E0
1.800049833E1,3.980982637E0,1.105173094E0,-2.027109214E0,4.602043251E0
1.801052333E1,4.505830468E0,8.089430628E-1,-1.881519392E0,4.949445656E0
1.802054933E1,5.162231296E0,4.849844384E-1,-1.361714784E0,5.360793692E0
1.803057533E1,6.006119000E0,3.649104032E-1,-5.416381109E-1,6.041522730E0
1.804060033E1,6.395065845E0,5.859385170E-1,4.302638555E-1,6.436250313E0
1.805062633E1,5.638940755E0,1.156296251E0,1.119787406E0,5.864179200E0
1.806065233E1,3.975703186E0,1.744417095E0,1.479549043E0,4.586749633E0
1.807067733E1,2.281681781E0,2.093565159E0,1.646924422E0,3.507341853E0
1.808070333E1,5.155928582E-1,2.018889198E0,1.715441072E0,2.698979003E0
1.809072933E1,-1.175583876E0,1.504859301E0,1.633965969E0,2.513253619E0
1.810075433E1,-2.096755984E0,8.983784920E-1,1.642354384E0,2.810835729E0
1.811078033E1,-2.037219050E0,2.427282275E-1,1.702054456E0,2.665739639E0
1.812080633E1,-1.301183238E0,-5.842357347E-1,1.922549450E0,2.393868334E0
1.813083133E1,-2.142180079E-1,-1.325843432E0,2.349292989E0,2.706090854E0
1.814085733E1,4.182834953E-1,-1.792116926E0,2.806410913E0,3.355977708E0
1.815088333E1,4.958737081E-1,-1.806513794E0,3.120375988E0,3.639523201E0
1.816090933E1,5.234678882E-1,-1.477984328E0,3.160921751E0,3.528439120E0
1.817093433E1,4.667814714E-1,-9.398269187E-1,2.986279745E0,3.165284552E0
1.818096033E1,3.548236638E-1,-2.623427854E-1,2.793404367E0,2.828043763E0
1.819098633E1,3.097112256E-1,4.582432209E-1,2.604165080E0,2.662251614E0
1.820101133E1,7.272415996E-2,1.099186130E0,2.456215321E0,2.691931027E0
1.821103733E1,-5.494879979E-1,1.557759646E0,2.448285181E0,2.953413703E0
1.822106333E1,-1.320812341E0,1.759499403E0,2.536948120E0,3.358048414E0
1.823108833E1,-2.056679753E0,1.610460893E0,2.696069276E0,3.753971955E0
1.824111433E1,-2.491424330E0,1.236121416E0,2.851209941E0,3.983037719E0
1.825114033E1,-2.652413964E0,7.349616784E-1,2.808145198E0,3.932066627E0
1.826116533E1,-2.699674085E0,1.889668071E-1,2.730949087E0,3.844740763E0
1.827119133E1,-2.689142080E0,-2.325500523E-1,2.672751750E0,3.798574281E0
1.828121733E1,-2.617656945E0,-5.368158390E-1,2.526474295E0,3.677413696E0
1.829124233E1,-2.415040398E0,-6.773416074E-1,2.185367468E0,3.326716511E0
1.830126833E1,-2.141036364E0,-6.701990873E-1,1.769709080E0,2.857459318E0
1.831129433E1,-1.891576602E0,-5.557845721E-1,1.232071488E0,2.324856702E0
1.832131933E1,-1.661015627E0,-3.846456331E-1,9.091122258E-1,1.932203461E0
1.833134533E1,-1.326936715E0,-1.769925866E-1,6.461127980E-1,1.486455236E0
1.834137133E1,-9.813727015E-1,1.391526228E-1,3.317758401E-1,1.045242096E0
1.835139733E1,-7.268691319E-1,5.350635016E-1,6.317668006E-2,9.047778615E-1
1.836142233E1,-5.271463716E-1,8.930544560E-1,-1.714519112E-1,1.051106710E0
1.837144833E1,-4.327799124E-1,1.129787899E0,-4.623801260E-1,1.295188994E0
1.838147433E1,-4.379792565E-1,1.248810897E0,-7.579266179E-1,1.525059751E0
1.839149933E1,-5.282602662E-1,1.243271537E0,-9.943586366E-1,1.677358674E0
1.840152533E1,-6.831454074E-1,9.902028742E-1,-1.149216588E0,1.663697132E0
1.841155133E1,-8.767005247E-1,4.367283909E-1,-1.223297156E0,1.567096497E0
1.842157633E1,-9.150529969E-1,-8.932411283E-2,-1.244857010E0,1.547568984E0
1.843160233E1,-8.656609815E-1,-4.269446835E-1,-1.239195735E0,1.570750384E0
1.844162833E1,-7.466099167E-1,-6.025373004E-1,-1.266959631E0,1.589233863E0
1.845165333E1,-5.492453384E-1,-6.084764636E-1,-1.374723523E0,1.600555783E0
1.846167933E1,-1.814028490E-1,-4.536465785E-1,-1.412445081E0,1.494557900E0
1.847170533E1,1.040231359E-1,-2.398820221E-1,-1.467300150E0,1.490414012E0
1.848173033E1,1.976680487E-1,-1.460901980E-1,-1.547188318E0,1.566590788E0
1.849175633E1,3.694381946E-1,-2.207923248E-1,-1.617718603E0,1.673991430E0
1.850178233E1,6.301848364E-1,-4.598380490E-1,-1.700176330E0,1.870610465E0
1.851180733E1,8.255935210E-1,-8.176949559E-1,-1.740249492E0,2.092533870E0
1.852183333E1,8.469925761E-1,-1.272160875E0,-1.765921108E0,2.335437234E0
1.853185933E1,8.103743881E-1,-1.581962441E0,-1.813248325E0,2.539130028E0
1.854188533E1,9.301750660E-1,-1.675413372E0,-1.900579122E0,2.698969548E0
1.855191033E1,1.052219905E0,-1.656067859E0,-2.033832489E0,2.825986921E0
1.856193633E1,1.134551041E0,-1.559066644E0,-2.270927582E0,2.979094988E0
1.857196233E1,1.202803835E0,-1.426130197E0,-2.482875116E0,3.105680802E0
1.858198733E1,1.123117980E0,-1.097998926E0,-2.703520968E0,3.126662959E0
1.859201333E1,9.590176266E-1,-5.911238278E-1,-2.955917201E0,3.163319252E0
1.860203933E1,8.985942543E-1,-1.156020847E-1,-3.173904909E0,3.300682936E0
1.861206433E1,1.078052904E0,1.873844044E-1,-3.223236698E0,3.403904492E0
1.862209033E1,1.516470117E0,2.941810209E-1,-3.082265006E0,3.447692222E0
1.863211633E1,2.203745413E0,1.185423571E-1,-2.701767973E0,3.488566513E0
1.864214133E1,2.772704639E0,-2.002439665E-1,-2.101736204E0,3.485008426E0
1.865216733E1,3.079784617E0,-7.133432796E-1,-1.359522224E0,3.441254510E0
1.866219333E1,3.385560667E0,-1.601865193E0,-5.424767478E-1,3.784478055E0
1.867221833E1,3.562285159E0,-2.486137862E0,3.171202326E-1,4.355608139E0
1.868224433E1,3.352647859E0,-2.959741572E0,1.102563847E0,4.606079122E0
1.869227033E1,2.831296079E0,-2.666137964E0,1.707099288E0,4.247201091E0
1.870229533E1,1.825718828E0,-1.644996302E0,2.081841491E0,3.220764827E0
1.871232133E1,4.180414206E-1,-5.646317748E-1,2.253015221E0,2.360009589E0
1.872234733E1,-5.092995000E-1,2.192685404E-1,2.439519181E0,2.501743094E0
1.873237404E1,-6.435977644E-1,7.845219474E-1,2.656188927E0,2.843419136E0
1.874239904E1,-1.649499536E-1,1.180353596E0,2.931051332E0,3.164096239E0
1.875242504E1,4.665721411E-1,1.447827898E0,3.360898865E0,3.689110512E0
1.876245104E1,8.817302996E-1,1.573740525E0,3.866083095E0,4.266228552E0
1.877247604E1,9.562986714E-1,1.594563775E0,4.054048859E0,4.460095619E0
1.878250204E1,5.447540921E-1,1.471550052E0,3.571952945E0,3.901418257E0
1.879252804E1,-2.605028129E-1,1.228359383E0,2.971906997E0,3.226291941E0
1.880255304E1,-9.929706538E-1,9.336758671E-1,2.642886511E0,2.973649350E0
1.881257904E1,-1.372935006E0,6.343541935E-1,2.401194191E0,2.837796560E0
1.882260504E1,-1.695708911E0,3.405934413E-1,2.163465114E0,2.769840050E0
1.883263004E1,-2.131888980E0,6.516451411E-2,1.930527391E0,2.876826905E0
1.884265604E1,-2.504016894E0,-1.898324874E-1,1.785587633E0,3.081308191E0
1.885268204E1,-2.860754936E0,-4.450388923E-1,1.725205775E0,3.370209695E0
1.886270704E1,-3.078973609E0,-6.291018590E-1,1.827481763E0,3.635318037E0
1.887273304E1,-3.078870698E0,-6.513529265E-1,2.001361585E0,3.729497768E0
1.888275904E1,-3.178084499E0,-6.373220209E-1,1.909966096E0,3.762229515E0
1.889278404E1,-3.380734960E0,-6.320911018E-1,1.794630936E0,3.879382454E0
1.890281004E1,-3.386918390E0,-6.304042532E-1,1.573117357E0,3.787258101E0
1.891283604E1,-3.086908865E0,-5.914783884E-1,1.275103487E0,3.391864078E0
1.892286104E1,-2.721205872E0,-5.004157522E-1,1.085730883E0,2.972236342E0
1.893288704E1,-2.425920897E0,-4.536322528E-1,8.931996131E-1,2.624629491E0
1.894291304E1,-2.110691069E0,-4.332849656E-1,6.981329906E-1,2.264981749E0
1.895293904E1,-1.622024639E0,-3.297303379E-1,4.676041746E-1,1.719982467E0
1.896296404E1,-1.164739630E0,-1.253252734E-1,2.142256093E-1,1.190889349E0
1.897299004E1,-7.161663884E-1,6.569873035E-2,-8.272640705E-2,7.239159326E-1
1.898301604E1,-1.979522234E-1,2.836872422E-1,-5.175931907E-1,6.225481870E-1
1.899304104E1,1.242849076E-1,5.342890379E-1,-9.032077074E-1,1.056738225E0
1.900306704E1,2.646338707E-1,8.125254326E-1,-1.211220317E0,1.482323622E0
1.901309304E1,1.443151295E-1,1.074320480E0,-1.472907776E0,1.828783384E0
1.902311804E1,-6.873694360E-2,1.254297339E0,-1.691805310E0,2.107176260E0
1.903314404E1,-3.990034711E-1,1.244839468E0,-1.907507926E0,2.312447958E0
1.904317004E1,-7.499194407E-1,1.015428932E0,-2.155357364E0,2.497807129E0
1.905319504E1,-8.927248192E-1,6.096077536E-1,-2.402284112E0,2.634302217E0
1.906322104E1,-8.715462041E-1,1.307090972E-1,-2.681766987E0,2.822862346E0
1.907324704E1,-7.689632374E-1,-3.685046136E-1,-2.945920801E0,3.066846830E0
1.908327204E1,-6.510757685E-1,-7.259614248E-1,-3.203961936E0,3.349073265E0
1.909329804E1,-5.790433341E-1,-9.324723639E-1,-3.597512294E0,3.761235249E0
1.910332404E1,-4.321308714E-1,-1.044409633E0,-4.042899388E0,4.197923777E0
1.911334904E1,-5.253138542E-2,-9.377078146E-1,-4.363109289E0,4.463045839E0
1.912337504E1,5.708736044E-1,-6.453665471E-1,-4.273169757E0,4.359171300E0
1.913340104E1,1.434928941E0,-1.836721534E-1,-3.678254156E0,3.952506820E0
1.914342704E1,2.119939610E0,2.788184850E-1,-2.899719611E0,3.602812446E0
1.915345204E1,2.452789437E0,6.294801007E-1,-2.291700400E0,3.415305542E0
1.916347804E1,2.618220617E0,8.733924624E-1,-1.954705482E0,3.382124644E0
1.917350404E1,2.396053904E0,1.087298229E0,-1.878317456E0,3.232857593E0
1.918352904E1,1.872112391E0,1.330183820E0,-1.978531862E0,3.031300402E0
1.919355504E1,1.387402772E0,1.546587078E0,-2.239481256E0,3.054847678E0
1.920358104E1,1.027472150E0,1.773482873E0,-2.486707381E0,3.222522943E0
1.921360604E1,6.941650701E-1,1.870611265E0,-2.602434304E0,3.279285891E0
1.922363204E1,6.801136261E-1,1.759090975E0,-2.435469400E0,3.080335501E0
1.923365804E1,1.617326986E0,1.377315301E0,-1.972163075E0,2.898649895E0
1.924368304E1,2.734141082E0,9.644477896E-1,-1.316588312E0,3.184194055E0
1.925370904E1,3.275957533E0,7.059457478E-1,-5.792729835E-1,3.400854944E0
1.926373504E1,3.196140701E0,6.150749002E-1,2.413882649E-1,3.263724989E0
1.927376004E1,2.454936535E0,7.052934909E-1,1.063322160E0,2.766732064E0
1.928378604E1,1.429766434E0,1.108597297E0,2.019109054E0,2.711092288E0
1.929381204E1,9.347861803E-1,1.506207230E0,3.129428648E0,3.596638581E0
1.930383704E1,1.343858557E0,1.768297855E0,4.224387606E0,4.772660031E0
1.931386304E1,2.110556583E0,1.832664589E0,5.023211989E0,5.748544796E0
1.932388904E1,2.811964599E0,1.642709018E0,5.290213398E0,6.212245618E0
1.933391404E1,2.911372527E0,1.275632221E0,4.880425322E0,5.824249212E0
1.934394004E1,2.511351056E0,8.776499663E-1,4.047412269E0,4.843418180E0
1.935396604E1,1.751805344E0,6.654045166E-1,3.125178891E0,3.643944050E0
1.936399204E1,1.182502887E0,7.127706179E-1,2.400158357E0,2.768955610E0
1.937401704E1,9.709465313E-1,9.856639731E-1,2.182399421E0,2.584015841E0
1.938404304E1,5.420632035E-1,1.305868027E0,2.113892273E0,2.543160310E0
1.939406904E1,-6.745698810E-2,1.532678453E0,2.184924395E0,2.669746860E0
1.940409404E1,-5.090989405E-1,1.734550065E0,2.491634245E0,3.078325335E0
1.941412004E1,-6.617364120E-1,1.966708646E0,2.838624394E0,3.516194879E0
1.942414604E1,-7.072716039E-1,2.118393460E0,3.251617913E0,3.944723441E0
1.943417104E1,-8.517147875E-1,2.087758728E0,3.573542218E0,4.225441819E0
1.944419704E1,-1.211544253E0,1.981059029E0,3.701989174E0,4.370029542E0
1.945422304E1,-1.766779479E0,1.790422841E0,3.680025862E0,4.457545740E0
1.946424804E1,-2.376426555E0,1.550185309E0,3.543823160E0,4.539731297E0
1.947427404E1,-2.721961917E0,1.393885141E0,3.297253093E0,4.497095776E0
1.948430004E1,-2.773433202E0,1.255707542E0,3.051755404E0,4.310677929E0
1.949432504E1,-2.505641835E0,1.015748482E0,2.756428914E0,3.861073211E0
1.950435104E1,-1.902907337E0,7.311336525E-1,2.368343218E0,3.124845972E0
1.951437704E1,-1.238311052E0,5.601984890E-1,1.865482672E0,2.308086265E0
1.952440204E1,-6.885792249E-1,5.121487020E-1,1.380655085E0,1.625621760E0
1.953442804E1,-3.619093198E-1,5.240812612E-1,1.021801081E0,1.204041932E0
1.954445404E1,-3.373135918E-1,6.088544860E-1,7.287817562E-1,1.007773334E0
1.955448004E1,-5.141538584E-1,7.802697060E-1,4.860451233E-1,1.053287646E0
1.956450504E1,-7.844560200E-1,9.516929658E-1,3.307733350E-1,1.276911018E0
1.957453104E1,-9.605805874E-1,1.043811024E0,3.127630337E-1,1.452610490E0
1.958455704E1,-1.060697783E0,1.019665824E0,3.865315063E-1,1.521251060E0
1.959458204E1,-1.186446834E0,7.448902506E-1,4.735649724E-1,1.478776980E0
1.960460804E1,-1.175227781E0,4.014913152E-1,5.555438130E-1,1.360508927E0
1.961463404E1,-1.037646890E0,1.819482480E-1,5.200854202E-1,1.174863855E0
1.962465904E1,-8.165531409E-1,-3.678614929E-2,3.879523797E-1,9.047758295E-1
1.963468504E1,-5.645054018E-1,-2.152554502E-1,2.141509111E-1,6.409850780E-1
1.964471104E1,-3.618069935E-1,-3.084866725E-1,-3.678264096E-2,4.768870834E-1
1.965473604E1,-2.436008513E-1,-2.831289062E-1,-2.702958758E-1,4.610457816E-1
1.966476204E1,-6.145131290E-2,-1.570983124E-1,-5.256494844E-1,5.520539141E-1
1.967478804E1,4.847341776E-2,-3.284366414E-2,-8.783314593E-1,8.802809386E-1
1.968481304E1,1.560791427E-1,-5.080060959E-3,-1.182682396E0,1.192947675E0
1.969483904E1,4.535714418E-1,-9.188080788E-2,-1.413439254E0,1.487272557E0
1.970486504E1,8.366125989E-1,-2.300936370E-1,-1.554152644E0,1.779959035E0
1.971489004E1,1.125472069E0,-3.865674667E-1,-1.631551069E0,2.019425828E0
1.972491604E1,1.291961594E0,-5.108640687E-1,-1.682788904E0,2.182183620E0
1.973494242E1,1.321115811E0,-5.325126538E-1,-1.829913036E0,2.318943387E0
1.974496742E1,1.214805245E0,-4.614542194E-1,-2.050326169E0,2.427453229E0
1.975499342E1,1.052772467E0,-3.061245435E-1,-2.292922468E0,2.541561636E0
1.976501942E1,8.337234896E-1,-1.172613783E-1,-2.515371602E0,2.652534520E0
1.977504442E1,6.418482774E-1,2.065771589E-1,-2.777663662E0,2.858331464E0
1.978507042E1,4.624223721E-1,6.110134242E-1,-3.042513295E0,3.137524344E0
1.979509642E1,5.337168878E-1,9.894028290E-1,-3.218977586E0,3.409631706E0
1.980512142E1,1.153635183E0,1.215985067E0,-3.374481947E0,3.767840526E0
1.981514742E1,2.189041420E0,1.293261723E0,-3.350073330E0,4.205641394E0
1.982517342E1,2.954248406E0,1.174132159E0,-2.962273124E0,4.345253966E0
1.983519942E1,3.116637279E0,6.105799994E-1,-2.308018810E0,3.925963154E0
1.984522442E1,2.943826329E0,-2.145131461E-1,-1.375584379E0,3.256433897E0
1.985525042E1,2.800626263E0,-8.042469446E-1,-3.979147196E-1,2.940859864E0
1.986527642E1,2.420999295E0,-1.223926609E0,6.715868508E-1,2.794684746E0
1.987530142E1,1.741914194E0,-1.459905468E0,1.686196953E0,2.829991025E0
1.988532742E1,1.180138273E0,-1.395785048E0,2.479681367E0,3.080545718E0
1.989535342E1,7.753688622E-1,-1.134186028E0,3.096909943E0,3.387982587E0
1.990537842E1,4.557021672E-1,-6.287573849E-1,3.507810159E0,3.592733280E0
1.991540442E1,5.046380997E-2,-2.942465097E-3,3.662760204E0,3.663109003E0
1.992543042E1,-8.324739397E-2,4.872237758E-1,3.612669446E0,3.646326599E0
1.993545542E1,4.686455637E-1,7.622782619E-1,3.684406596E0,3.791510092E0
1.994548142E1,1.571366701E0,1.077369365E0,3.684249891E0,4.147724113E0
1.995550742E1,2.441142368E0,1.354834365E0,3.579670100E0,4.539690545E0
1.996553242E1,2.726549057E0,1.605132179E0,3.612826152E0,4.802398555E0
1.997555842E1,2.350890595E0,1.696249925E0,3.575303984E0,4.602906579E0
1.998558442E1,1.476343015E0,1.656272365E0,3.350296694E0,4.018372156E0
1.999560942E1,2.032427841E-1,1.405889621E0,2.890823073E0,3.220976761E0
2.000563542E1,-1.043761323E0,1.093571999E0,2.378525559E0,2.818283388E0
2.001566142E1,-2.067180183E0,5.751900190E-1,2.026052476E0,2.951095746E0
2.002568642E1,-2.431274607E0,7.466982096E-2,2.192467303E0,3.274688485E0
2.003571242E1,-2.406766587E0,-3.032880592E-1,2.577725140E0,3.539657604E0
2.004573842E1,-2.484003628E0,-5.220549086E-1,2.774232516E0,3.760210288E0
2.005576342E1,-2.411925001E0,-4.828228690E-1,2.406640288E0,3.441281390E0
2.006578942E1,-2.433389545E0,-4.211299199E-1,1.768074637E0,3.037239373E0
2.007581542E1,-2.460944549E0,-3.038575780E-1,1.153179100E0,2.734666257E0
2.008584042E1,-2.413549942E0,-3.530300304E-2,3.427170038E-1,2.438016524E0
2.009586642E1,-2.290227486E0,1.620618676E-1,-4.623795412E-1,2.342050561E0
2.010589242E1,-1.838699647E0,4.196945746E-1,-1.182674064E0,2.226135186E0
2.011591742E1,-1.318395102E0,6.975233453E-1,-1.565956857E0,2.162620018E0
2.012594342E1,-9.362544161E-1,8.980579184E-1,-1.687437586E0,2.128503222E0
2.013596942E1,-8.203169936E-1,9.366371895E-1,-1.619208181E0,2.042558280E0
2.014599542E1,-8.281125015E-1,8.699566385E-1,-1.317869584E0,1.783080230E0
2.015602042E1,-8.707094675E-1,8.223209806E-1,-1.033237504E0,1.581747929E0
2.016604642E1,-1.078990797E0,7.228992379E-1,-8.423376077E-1,1.548010689E0
2.017607142E1,-1.398252865E0,5.133796140E-1,-8.314420523E-1,1.705862125E0
2.018609742E1,-1.616276241E0,2.430585220E-1,-1.067753180E0,1.952312266E0
2.019612342E1,-1.618559579E0,-4.592037722E-2,-1.399213709E0,2.140009998E0
2.020614942E1,-1.472259904E0,-4.122686107E-1,-1.754487462E0,2.327174443E0
2.021617442E1,-1.110863970E0,-6.027661458E-1,-2.052971595E0,2.410816906E0
2.022620042E1,-7.042690587E-1,-5.717368727E-1,-2.235316869E0,2.412368020E0
2.023622642E1,-4.890488380E-1,-4.842321941E-1,-2.319601559E0,2.419545614E0
2.024625142E1,-3.351331651E-1,-3.731755887E-1,-2.379420914E0,2.431710950E0
2.025627742E1,-8.594763815E-2,-2.690391630E-1,-2.523856496E0,2.539610340E0
2.026630342E1,2.152517956E-1,-2.242777039E-1,-2.745755699E0,2.763296615E0
2.027632842E1,4.648746943E-1,-2.695496249E-1,-3.025200859E0,3.072556870E0
2.028635442E1,7.632008064E-1,-3.461461034E-1,-3.177351258E0,3.286008766E0
2.029638042E1,1.222464513E0,-3.015128446E-1,-2.956073906E0,3.213051886E0
2.030640542E1,1.681984912E0,-9.111350700E-2,-2.321950386E0,2.868593472E0
2.031643142E1,1.695328258E0,2.321245211E-1,-1.462327239E0,2.250871087E0
2.032645742E1,1.641409913E0,7.260446745E-1,-8.399502627E-1,1.981636651E0
2.033648242E1,1.617745062E0,1.430036137E0,-9.009408150E-1,2.339614667E0
2.034650842E1,1.420115020E0,1.966887717E0,-1.357967303E0,2.780188691E0
2.035653442E1,1.383410878E0,2.267295438E0,-1.762910961E0,3.187837718E0
2.036655942E1,1.576400569E0,2.398153493E0,-1.976925486E0,3.484883542E0
2.037658542E1,1.778018997E0,2.335773788E0,-1.920619723E0,3.507986725E0
2.038661142E1,1.899594889E0,2.191781425E0,-1.654003646E0,3.338876251E0
2.039663642E1,2.128156117E0,2.079047546E0,-1.313497474E0,3.252193532E0
2.040666242E1,2.395748094E0,1.968353614E0,-8.573234367E-1,3.216990574E0
2.041668842E1,2.738326519E0,1.671803593E0,-3.700907439E-1,3.229601607E0
2.042671342E1,3.368554040E0,1.228145667E0,2.768715084E-1,3.596130689E0
2.043673942E1,4.453641729E0,8.634323153E-1,1.123235509E0,4.673553041E0
2.044676542E1,5.509526669E0,8.260496038E-1,2.088376924E0,5.949668919E0
2.045679042E1,6.099093238E0,1.216951319E0,3.014132665E0,6.911215852E0
2.046681642E1,5.710023601E0,2.065800679E0,3.630764825E0,7.074910260E0
2.047684242E1,3.739910122E0,2.712235658E0,3.758344054E0,5.955526846E0
2.048686742E1,6.995678973E-1,2.385625833E0,3.353316196E0,4.174366463E0
2.049689342E1,-2.137672461E0,1.541587855E0,2.584358221E0,3.691211736E0
2.050691942E1,-4.080252571E0,7.744451483E-1,1.880685725E0,4.559079417E0
2.051694442E1,-4.568026716E0,2.824057518E-1,1.737507733E0,4.895462614E0
2.052697042E1,-3.694108881E0,-1.690881743E-1,2.382407087E0,4.398965193E0
2.053699642E1,-2.165817448E0,-4.243688388E-1,3.311433760E0,3.979503446E0
2.054702142E1,-9.568968415E-1,-3.867300193E-1,4.152254015E0,4.278600832E0
2.055704742E1,-2.071077937E-1,-8.178135082E-2,4.560408964E0,4.565841844E0
2.056707342E1,3.553300327E-1,4.822016023E-1,4.691930385E0,4.730009361E0
2.057709842E1,6.645518464E-1,1.169002250E0,4.716215041E0,4.904169627E0
2.058712442E1,3.020028412E-1,1.780302627E0,4.364639506E0,4.723426846E0
2.059715042E1,-3.729599726E-1,2.164947821E0,4.013483216E0,4.575384763E0
2.060717542E1,-9.702208918E-1,2.339313985E0,3.531673231E0,4.345852541E0
2.061720142E1,-1.405777647E0,2.348367229E0,2.789308977E0,3.907849025E0
2.062722742E1,-1.808185952E0,2.072990123E0,2.033208445E0,3.420637523E0
2.063725342E1,-2.188780634E0,1.605180711E0,1.513577792E0,3.107777905E0
2.064727842E1,-2.294850880E0,1.185348580E0,1.115508559E0,2.813494476E0
2.065730442E1,-1.900561434E0,1.044885158E0,6.305426129E-1,2.258650647E0
2.066733042E1,-1.151303313E0,1.129959222E0,6.631561160E-2,1.614529319E0
2.067735542E1,-4.337675071E-1,1.191475439E0,-3.487467257E-1,1.315063592E0
2.068738142E1,5.123681188E-2,1.099692280E0,-7.488705233E-1,1.331448603E0
2.069740742E1,2.492843449E-1,8.895407179E-1,-1.048798699E0,1.397642331E0
2.070743242E1,9.090490758E-2,5.245931849E-1,-1.246391319E0,1.355342404E0
2.071745842E1,-1.091365260E-1,1.406179351E-1,-1.290848869E0,1.303063693E0
2.072748442E1,-2.450872135E-1,-2.644567001E-1,-1.089943802E0,1.148034224E0
2.073750917E1,-3.728453672E-1,-5.008836025E-1,-8.152503812E-1,1.026903713E0
2.074753517E1,-5.517976481E-1,-6.237186930E-1,-5.680646020E-1,1.008068968E0
2.075756117E1,-8.047236389E-1,-6.307496774E-1,-3.750830966E-1,1.089087976E0
2.076758617E1,-9.597684091E-1,-5.118632117E-1,-3.894678319E-1,1.155354724E0
2.077761217E1,-9.528944224E-1,-4.044191623E-1,-4.446918601E-1,1.126638136E0
2.078763817E1,-1.083676756E0,-3.063452759E-1,-5.215389283E-1,1.241050198E0
2.079766317E1,-1.210557827E0,-4.321998686E-2,-6.114749523E-1,1.356915560E0
2.080768917E1,-1.182702861E0,2.707009417E-1,-7.012396163E-1,1.401357220E0
2.081771517E1,-1.040320821E0,4.532858053E-1,-6.662282431E-1,1.315901024E0
2.082774017E1,-1.001363162E0,5.014279783E-1,-6.231254929E-1,1.281578550E0
2.083776617E1,-8.997748071E-1,5.999462530E-1,-5.924831593E-1,1.233112527E0
2.084779217E1,-6.784448308E-1,6.934853312E-1,-5.623874673E-1,1.121378150E0
2.085781717E1,-3.910109121E-1,7.970561850E-1,-6.042950466E-1,1.073946274E0
2.086784317E1,-1.298906332E-1,7.769876638E-1,-6.953321743E-1,1.050746515E0
2.087786917E1,6.126303256E-2,5.857866356E-1,-8.163390597E-1,1.006632307E0
2.088789417E1,2.659927636E-1,6.992129713E-2,-9.591578136E-1,9.978100268E-1
2.089792017E1,6.247486800E-1,-6.972339812E-1,-9.906684588E-1,1.363037099E0
2.090794617E1,1.115786156E0,-1.309294788E0,-1.011049733E0,1.995357900E0
2.091797117E1,1.471985085E0,-1.609936690E0,-1.132494429E0,2.457881174E0
2.092799717E1,1.508958199E0,-1.682400064E0,-1.453814278E0,2.687191987E0
2.093802317E1,1.408769667E0,-1.601018809E0,-1.833471651E0,2.812385375E0
2.094804817E1,1.627888811E0,-1.290594808E0,-2.318705766E0,3.113206284E0
2.095807417E1,2.284637548E0,-5.832688245E-1,-2.873891875E0,3.717395023E0
2.096810017E1,2.734514135E0,2.798231828E-1,-3.415995424E0,4.384620087E0
2.097812517E1,2.505969279E0,1.343019481E0,-3.717115921E0,4.679800650E0
2.098815117E1,1.522357094E0,2.394834759E0,-3.882607327E0,4.809100155E0
2.099817717E1,3.612269497E-1,2.957317024E0,-3.758384399E0,4.796004815E0
2.100820217E1,-2.646806484E-1,3.020201490E0,-3.391104412E0,4.548764889E0
2.101822817E1,6.444216371E-3,2.646826073E0,-2.914690822E0,3.937150286E0
2.102825417E1,1.551963885E0,2.241126370E0,-2.717868866E0,3.849422097E0
2.103827917E1,3.422507468E0,1.802264184E0,-2.552565740E0,4.634361382E0
2.104830517E1,4.076312717E0,1.011029487E0,-2.194596859E0,4.738645520E0
2.105833117E1,3.434354512E0,-6.809024155E-2,-1.936741666E0,3.943398975E0
2.106835617E1,2.793349988E0,-1.000470877E0,-1.525913955E0,3.336489102E0
2.107838217E1,2.246869213E0,-1.923797538E0,-5.948243845E-1,3.017156654E0
2.108840817E1,1.968092097E0,-2.566815990E0,4.844511724E-1,3.270569334E0
2.109843317E1,1.734418648E0,-2.983595581E0,1.442912144E0,3.740594350E0
2.110845917E1,1.382178285E0,-2.681519650E0,2.476716244E0,3.903215059E0
2.111848517E1,5.905056310E-1,-2.202321908E0,3.507559313E0,4.183526147E0
2.112851017E1,-2.115996248E-1,-1.186115150E0,4.150441963E0,4.321783433E0
2.113853617E1,-8.398613119E-1,-4.700284302E-3,4.172023451E0,4.255721889E0
2.114856217E1,-1.172815220E0,1.024686829E0,3.948283837E0,4.244340219E0
2.115858717E1,-1.190112453E0,1.587755570E0,3.666812909E0,4.169274794E0
2.116861317E1,-6.951748842E-1,1.953010666E0,3.676927423E0,4.221056035E0
2.117863917E1,1.904385513E-1,2.290763384E0,3.844630246E0,4.479402354E0
2.118866417E1,8.672508395E-1,2.486037582E0,3.954261446E0,4.750651583E0
2.119869017E1,7.507573467E-1,2.592038539E0,3.781899562E0,4.645972953E0
2.120871617E1,-3.940789461E-2,2.613679084E0,3.251422616E0,4.171884510E0
2.121874117E1,-1.097399586E0,2.347538678E0,2.754012845E0,3.781509017E0
2.122876717E1,-2.132600001E0,1.885197729E0,2.309068385E0,3.665208050E0
2.123879317E1,-2.488930492E0,1.466777116E0,2.285037352E0,3.683423109E0
2.124881917E1,-2.248037487E0,1.157319514E0,2.527358978E0,3.574997119E0
2.125884417E1,-2.222162388E0,8.333637397E-1,2.291730075E0,3.299170735E0
2.126887017E1,-2.375230215E0,4.889463656E-1,1.816584892E0,3.029978183E0
2.127889617E1,-2.457739690E0,1.650274292E-1,1.370416026E0,2.818822186E0
2.128892117E1,-2.373531014E0,-1.389716515E-1,8.094850266E-1,2.511618721E0
2.129894717E1,-2.251265150E0,-5.003737253E-1,3.207476990E-1,2.328400250E0
2.130897317E1,-2.000382761E0,-8.528356987E-1,-9.629487097E-3,2.174615517E0
2.131899817E1,-1.854618691E0,-1.216230284E0,-1.953171757E-1,2.226426597E0
2.132902417E1,-1.802804759E0,-1.388721904E0,-2.605732718E-1,2.290535299E0
2.133905017E1,-1.690599614E0,-1.410726438E0,-2.822078235E-1,2.219891302E0
2.134907517E1,-1.510122964E0,-1.358616637E0,-3.110964310E-1,2.055016185E0
2.135910117E1,-1.308299299E0,-1.228805233E0,-3.925178857E-1,1.837302275E0
2.136912717E1,-1.209949717E0,-1.055547044E0,-6.151256248E-1,1.719458465E0
2.137915217E1,-1.097842805E0,-7.604890870E-1,-8.731471717E-1,1.595615386E0
2.138917817E1,-9.809581339E-1,-3.994523180E-1,-1.119733173E0,1.541312231E0
2.139920417E1,-1.048244968E0,-1.037461241E-1,-1.330950974E0,1.697354196E0
2.140922917E1,-1.150498737E0,7.982838079E-2,-1.473096641E0,1.870837680E0
2.141925517E1,-1.146598059E0,1.579987105E-1,-1.500597265E0,1.895110249E0
2.142928117E1,-1.019238101E0,1.442663784E-1,-1.558968996E0,1.868165791E0
2.143930617E1,-8.091745394E-1,4.572296061E-2,-1.698388690E0,1.881854981E0
2.144933217E1,-5.656257284E-1,-3.553966910E-2,-1.926256438E0,2.007899250E0
2.145935817E1,-3.426649636E-1,-6.606688567E-2,-2.178842706E0,2.206612709E0
2.146938317E1,-2.229800606E-1,-1.117465038E-1,-2.379985170E0,2.393018345E0
2.147940917E1,-1.582215625E-1,-1.433998210E-1,-2.732812595E0,2.741142508E0
2.148943517E1,-1.436777830E-2,-1.316351500E-1,-3.124760231E0,3.127564667E0
2.149946017E1,1.568141377E-1,-1.209849583E-1,-3.239786072E0,3.245834535E0
2.150948617E1,3.861705869E-1,-1.109012888E-1,-3.032599926E0,3.059099398E0
2.151951217E1,7.245618206E-1,-5.418000787E-2,-2.799975468E0,2.892712901E0
2.152953717E1,1.060525290E0,4.719755530E-2,-2.585103157E0,2.794584017E0
2.153956317E1,1.385708249E0,1.475533175E-1,-2.253242093E0,2.649350725E0
2.154958917E1,1.606181608E0,1.925869645E-1,-1.868928582E0,2.471801598E0
2.155961417E1,1.546668647E0,1.742151591E-1,-1.844957337E0,2.413794192E0
2.156964017E1,1.620500854E0,2.742759293E-1,-2.166267099E0,2.719184335E0
2.157966617E1,2.190127832E0,4.580343291E-1,-2.443220469E0,3.312971721E0
2.158969117E1,3.171455510E0,6.725296412E-1,-2.367917102E0,4.014655349E0
2.159971717E1,4.082894343E0,8.208672166E-1,-1.991183921E0,4.616130697E0
2.160974317E1,4.571104690E0,8.812287547E-1,-1.250442855E0,4.820287288E0
2.161976817E1,4.810468649E0,7.780774386E-1,-1.795083328E-1,4.876293302E0
2.162979417E1,5.521681277E0,7.191880102E-1,1.077911401E0,5.671691855E0
2.163982017E1,6.403664176E0,8.817600473E-1,2.043086731E0,6.779278652E0
2.164984517E1,6.721010696E0,1.150898686E0,2.940855943E0,7.425980490E0
2.165987117E1,6.135072325E0,1.763789797E0,3.668978718E0,7.362843996E0
2.166989717E1,4.389327620E0,2.579686881E0,4.003693222E0,6.476923712E0
2.167992217E1,1.839777288E0,2.982388716E0,3.649795173E0,5.059686525E0
2.168994817E1,-1.158347454E0,2.545395300E0,2.524317842E0,3.767358043E0
2.169997417E1,-3.768537505E0,1.529347440E0,1.007969274E0,4.190081213E0
2.170999917E1,-4.504878541E0,5.997657933E-1,4.051945031E-1,4.562656273E0
2.172002517E1,-3.704783558E0,-1.505962086E-1,5.661910810E-1,3.750822946E0
2.173005117E1,-2.318785288E0,-9.475421736E-1,1.317489368E0,2.830261404E0
2.174007542E1,-1.179413803E0,-1.565077582E0,2.140313648E0,2.901969550E0
2.175010142E1,-5.753952563E-1,-1.869695006E0,2.700824817E0,3.334860388E0
2.176012742E1,-4.068966275E-1,-1.807561908E0,3.108310844E0,3.618624216E0
2.177015242E1,-7.656174606E-1,-1.158536758E0,3.116517411E0,3.411899513E0
2.178017842E1,-1.662739386E0,-2.277051955E-2,2.679008271E0,3.153142254E0
2.179020442E1,-2.411129780E0,9.847991699E-1,2.293524731E0,3.470393625E0
2.180023042E1,-2.688224652E0,1.566041496E0,2.105761281E0,3.756763011E0
2.181025542E1,-2.622652221E0,1.744072694E0,1.979291854E0,3.719904633E0
2.182028142E1,-2.428626403E0,1.628031045E0,1.895817003E0,3.484656855E0
2.183030742E1,-2.244221009E0,1.399210639E0,1.752011751E0,3.172359299E0
2.184033242E1,-2.041512660E0,1.142975855E0,1.588765676E0,2.828134389E0
2.185035842E1,-1.887028638E0,8.523560809E-1,1.530156695E0,2.574639291E0
2.186038442E1,-1.617489538E0,6.669816568E-1,1.531680479E0,2.325334820E0
2.187040942E1,-1.236673831E0,5.810610621E-1,1.468436995E0,2.005816873E0
2.188043542E1,-9.397656691E-1,5.203231095E-1,1.268322471E0,1.662088307E0
2.189046142E1,-6.652231067E-1,5.500652643E-1,9.978027928E-1,1.319357416E0
2.190048642E1,-4.192804456E-1,5.769082233E-1,7.884081531E-1,1.063111756E0
2.191051242E1,-2.046127868E-1,5.990982606E-1,5.811395975E-1,8.593650854E-1
2.192053842E1,-3.375889957E-2,5.228311265E-1,2.283121365E-1,5.715054521E-1
2.193056342E1,4.330798745E-2,4.275143485E-1,-1.458254653E-1,4.537721524E-1
2.194058942E1,5.056905985E-2,3.219820462E-1,-4.343422518E-1,5.430311774E-1
2.195061542E1,-8.954426050E-2,2.110865316E-1,-5.223656881E-1,5.704748991E-1
2.196064042E1,-3.597370791E-1,2.387198880E-2,-4.435908294E-1,5.716235316E-1
2.197066642E1,-7.113050133E-1,-2.379224740E-1,-3.751088244E-1,8.386110873E-1
2.198069242E1,-1.116365615E0,-4.901048452E-1,-3.494787240E-1,1.268310027E0
2.199071742E1,-1.489019194E0,-6.480681069E-1,-4.080315721E-1,1.674413388E0
2.200074342E1,-1.728709427E0,-6.888786024E-1,-5.060952258E-1,1.928502629E0
2.201076942E1,-1.698586911E0,-4.383888540E-1,-6.375499892E-1,1.866508042E0
2.202079442E1,-1.441654993E0,-4.949843466E-2,-8.668473816E-1,1.682927092E0
2.203082042E1,-1.151102169E0,2.493996812E-1,-1.043682386E0,1.573692895E0
2.204084642E1,-8.678285444E-1,4.486974952E-1,-1.066837360E0,1.446581410E0
2.205087142E1,-6.206375027E-1,5.248392065E-1,-1.024318746E0,1.307622268E0
2.206089742E1,-4.161726505E-1,5.708445145E-1,-1.018418906E0,1.239451573E0
2.207092342E1,-2.534563333E-1,6.261648756E-1,-1.029912193E0,1.231682463E0
2.208094842E1,1.476012647E-2,7.186197339E-1,-1.020902803E0,1.248549044E0
2.209097442E1,2.431880379E-1,7.753758788E-1,-1.097134123E0,1.365302699E0
2.210100042E1,3.539448273E-1,7.310797119E-1,-1.241390780E0,1.483511225E0
2.211102542E1,5.384367603E-1,4.822752772E-1,-1.298894638E0,1.486482717E0
2.212105142E1,8.445156956E-1,1.709275621E-1,-1.344288912E0,1.596726548E0
2.213107742E1,9.447042274E-1,-1.483226649E-1,-1.463017795E0,1.747823435E0
2.214110342E1,9.157991016E-1,-4.956825042E-1,-1.560724769E0,1.876233179E0
2.215112842E1,1.104968222E0,-8.137508628E-1,-1.633679309E0,2.133554153E0
2.216115442E1,1.447244346E0,-1.004359860E0,-1.808482990E0,2.524651590E0
2.217118042E1,1.568817900E0,-1.139106314E0,-2.063491759E0,2.831386769E0
2.218120542E1,1.433679391E0,-1.064755897E0,-2.431859329E0,3.017131338E0
2.219123142E1,1.288389530E0,-4.754679488E-1,-2.975418835E0,3.277061884E0
2.220125742E1,1.126281908E0,3.048901963E-1,-3.482171288E0,3.672463185E0
2.221128242E1,9.033609045E-1,5.945853795E-1,-3.744276237E0,3.897332067E0
2.222130842E1,1.220150185E0,5.941184793E-1,-3.795221858E0,4.030564749E0
2.223133442E1,2.170609242E0,6.555803172E-1,-4.038427438E0,4.631438891E0
2.224135942E1,3.281581385E0,4.549548930E-1,-4.078055187E0,5.254169245E0
2.225138542E1,3.868565238E0,-2.617379641E-1,-3.687448318E0,5.350848424E0
2.226141142E1,4.060042840E0,-1.122288187E0,-3.137166853E0,5.252170456E0
2.227143642E1,4.231072143E0,-2.072885896E0,-2.203144319E0,5.201218349E0
2.228146242E1,3.929718928E0,-2.936776341E0,-1.054986296E0,5.018001815E0
2.229148842E1,2.743051069E0,-3.524912095E0,4.697996579E-2,4.466714851E0
2.230151342E1,1.230034318E0,-3.635977033E0,1.053629669E0,3.980383007E0
2.231153942E1,-8.965886593E-2,-2.806133755E0,1.775201808E0,3.321711430E0
2.232156542E1,-1.472161086E0,-1.811664606E0,2.255274585E0,3.245866659E0
2.233159042E1,-2.232800812E0,-1.290452428E0,2.580982039E0,3.648579891E0
2.234161642E1,-1.926311402E0,-1.090089471E0,3.009495238E0,3.735777330E0
2.235164242E1,-6.289563364E-1,-8.266452889E-1,3.470686187E0,3.622787754E0
2.236166742E1,7.148992968E-1,-5.124110958E-1,3.657781885E0,3.762049236E0
2.237169342E1,1.063675770E0,-2.915046041E-1,3.689391932E0,3.850713429E0
2.238171942E1,6.362624323E-1,-6.771872409E-2,3.397017117E0,3.456752956E0
2.239174542E1,7.202483296E-2,1.787887781E-1,2.971398289E0,2.977643497E0
2.240177042E1,-4.405374134E-1,4.114244190E-1,2.586256227E0,2.655572356E0
2.241179642E1,-9.403030282E-1,5.731202509E-1,2.283395015E0,2.535060039E0
2.242182242E1,-1.174938928E0,6.351748502E-1,2.152056026E0,2.532839063E0
2.243184742E1,-1.259961537E0,4.666659889E-1,2.241169932E0,2.613067715E0
2.244187342E1,-1.231362805E0,2.909779161E-1,2.364290074E0,2.681564853E0
2.245189942E1,-1.199146986E0,2.857526249E-1,2.431936512E0,2.726522190E0
2.246192442E1,-1.312175419E0,3.468491580E-1,2.531739128E0,2.872596679E0
2.247195042E1,-1.700328212E0,3.408260508E-1,2.522214013E0,3.060856409E0
2.248197642E1,-2.178824580E0,2.966600210E-1,2.489480131E0,3.321565149E0
2.249200142E1,-2.605852001E0,2.497991192E-1,2.396956714E0,3.549403575E0
2.250202742E1,-2.789634667E0,2.384639627E-1,2.367365710E0,3.666517018E0
2.251205342E1,-2.691081601E0,1.605097973E-1,2.297830621E0,3.542274572E0
2.252207842E1,-2.448853092E0,-2.030591816E-3,2.079793212E0,3.212853154E0
